,Load,Trial_Type,Audio,RT_VS,Sound_Onset,Sound_Hz,RT_TO,Acc_VS,Acc_DT
0,low,Target Present,Normal,0.7425,None,None,NaN,1,0
1,low,No Target,Normal,NaN,None,None,NaN,999,0
2,low,No Target,Normal,NaN,None,None,NaN,999,0
3,low,No Target,Normal,NaN,None,None,NaN,999,0
4,low,No Target,Normal,NaN,None,None,NaN,999,0
5,low,No Target,Normal,NaN,None,None,NaN,999,0
6,low,No Target,Critical,NaN,0.008,tone4,0.46299999999999997,999,1
7,low,No Target,Normal,NaN,None,None,NaN,999,0
8,low,No Target,Normal,NaN,None,None,NaN,999,0
9,low,No Target,Normal,NaN,None,None,NaN,999,0
10,low,No Target,Normal,NaN,None,None,NaN,999,0
11,low,No Target,Normal,NaN,None,None,NaN,999,0
12,low,No Target,Normal,NaN,None,None,NaN,999,0
13,low,No Target,Normal,NaN,None,None,NaN,999,0
14,low,No Target,Normal,NaN,None,None,NaN,999,0
15,low,No Target,Critical,NaN,0.735,tone3,0.39700000000000013,999,1
16,low,No Target,Normal,NaN,None,None,NaN,999,0
17,low,No Target,Normal,NaN,None,None,NaN,999,0
18,low,No Target,Normal,NaN,None,None,NaN,999,0
19,low,Target Absent,Normal,0.7509999999999999,None,None,NaN,1,0
20,low,No Target,Normal,NaN,None,None,NaN,999,0
21,low,No Target,Normal,NaN,None,None,NaN,999,0
22,low,No Target,Critical,NaN,0.069,tone2,0.5109999999999999,999,1
23,low,No Target,Normal,NaN,None,None,NaN,999,0
24,low,No Target,Critical,NaN,0.494,tone3,0.482,999,1
25,low,No Target,Normal,NaN,None,None,NaN,999,0
26,low,No Target,Critical,NaN,0.156,tone4,0.608,999,1
27,low,No Target,Normal,NaN,None,None,NaN,999,0
28,low,No Target,Normal,NaN,None,None,NaN,999,0
29,low,No Target,Normal,NaN,None,None,NaN,999,0
30,low,No Target,Normal,NaN,None,None,NaN,999,0
31,low,No Target,Normal,NaN,None,None,NaN,999,0
32,low,Target Absent,Normal,0.649,None,None,NaN,1,0
33,low,No Target,Normal,NaN,None,None,NaN,999,0
34,low,No Target,Normal,NaN,None,None,NaN,999,0
35,low,No Target,Critical,NaN,0.427,tone3,0.536,999,1
36,low,No Target,Normal,NaN,None,None,NaN,999,0
37,low,No Target,Normal,NaN,None,None,NaN,999,0
38,low,No Target,Normal,NaN,None,None,NaN,999,0
39,low,No Target,Normal,NaN,None,None,NaN,999,0
40,low,No Target,Normal,NaN,None,None,NaN,999,0
41,low,No Target,Critical,NaN,0.478,tone4,0.505,999,1
42,low,No Target,Normal,NaN,None,None,NaN,999,0
43,low,No Target,Normal,NaN,None,None,NaN,999,0
44,low,No Target,Normal,NaN,None,None,NaN,999,0
45,low,No Target,Normal,NaN,None,None,NaN,999,0
46,low,No Target,Normal,NaN,None,None,NaN,999,0
47,low,Target Absent,Normal,0.726,None,None,NaN,1,0
48,low,No Target,Normal,NaN,None,None,NaN,999,0
49,low,No Target,Normal,NaN,None,None,NaN,999,0
50,low,No Target,Normal,NaN,None,None,NaN,999,0
51,low,No Target,Normal,NaN,None,None,NaN,999,0
52,low,No Target,Critical,NaN,0.802,tone4,0.43699999999999983,999,1
53,low,Target Present,Normal,0.647,None,None,NaN,0,0
54,low,No Target,Normal,NaN,None,None,NaN,999,0
55,low,No Target,Normal,NaN,None,None,NaN,999,0
56,low,No Target,Normal,NaN,None,None,NaN,999,0
57,low,No Target,Normal,NaN,None,None,NaN,999,0
58,low,No Target,Critical,NaN,0.863,tone1,0.611,999,1
59,low,Target Present,Normal,0.8819999999999999,None,None,NaN,1,0
60,high,No Target,Normal,NaN,None,None,NaN,999,0
61,high,No Target,Normal,NaN,None,None,NaN,999,0
62,high,No Target,Critical,NaN,0.503,tone3,0.477,999,1
63,high,No Target,Normal,NaN,None,None,NaN,999,0
64,high,Target Absent,Normal,0.7390000000000001,None,None,NaN,1,0
65,high,No Target,Normal,NaN,None,None,NaN,999,0
66,high,No Target,Normal,NaN,None,None,NaN,999,0
67,high,No Target,Normal,NaN,None,None,NaN,999,0
68,high,No Target,Normal,NaN,None,None,NaN,999,0
69,high,No Target,Normal,NaN,None,None,NaN,999,0
70,high,No Target,Normal,NaN,None,None,NaN,999,0
71,high,Target Present,Normal,0.841,None,None,NaN,1,0
72,high,No Target,Normal,NaN,None,None,NaN,999,0
73,high,No Target,Normal,NaN,None,None,NaN,999,0
74,high,No Target,Normal,NaN,None,None,NaN,999,0
75,high,No Target,Normal,NaN,None,None,NaN,999,0
76,high,No Target,Normal,NaN,None,None,NaN,999,0
77,high,No Target,Normal,NaN,None,None,NaN,999,0
78,high,Target Absent,Critical,0.891,0.803,tone1,0.46399999999999986,999,1
79,high,No Target,Normal,NaN,None,None,NaN,999,0
80,high,No Target,Normal,NaN,None,None,NaN,999,0
81,high,No Target,Critical,NaN,0.635,tone1,0.5189999999999999,999,1
82,high,No Target,Normal,NaN,None,None,NaN,999,0
83,high,No Target,Normal,NaN,None,None,NaN,999,0
84,high,No Target,Normal,NaN,None,None,NaN,999,0
85,high,No Target,Normal,NaN,None,None,NaN,999,0
86,high,No Target,Normal,NaN,None,None,NaN,999,0
87,high,No Target,Normal,NaN,None,None,NaN,999,0
88,high,Target Present,Normal,0.7425,None,None,NaN,1,0
89,high,No Target,Normal,NaN,None,None,NaN,999,0
90,high,No Target,Normal,NaN,None,None,NaN,999,0
91,high,No Target,Critical,NaN,0.009,tone1,0.45,999,1
92,high,No Target,Normal,NaN,None,None,NaN,999,0
93,high,No Target,Normal,NaN,None,None,NaN,999,0
94,high,No Target,Critical,NaN,0.946,tone4,0.5530000000000002,999,1
95,high,No Target,Normal,NaN,None,None,NaN,999,0
96,high,No Target,Normal,NaN,None,None,NaN,999,0
97,high,No Target,Normal,NaN,None,None,NaN,999,0
98,high,No Target,Normal,NaN,None,None,NaN,999,0
99,high,No Target,Normal,NaN,None,None,NaN,999,0
100,high,No Target,Normal,NaN,None,None,NaN,999,0
101,high,No Target,Normal,NaN,None,None,NaN,999,0
102,high,No Target,Normal,NaN,None,None,NaN,999,0
103,high,No Target,Normal,NaN,None,None,NaN,999,0
104,high,No Target,Normal,NaN,None,None,NaN,999,0
105,high,No Target,Normal,NaN,None,None,NaN,999,0
106,high,No Target,Critical,NaN,0.406,tone3,0.48,999,1
107,high,No Target,Normal,NaN,None,None,NaN,999,0
108,high,No Target,Normal,NaN,None,None,NaN,999,0
109,high,No Target,Normal,NaN,None,None,NaN,999,0
110,high,Target Present,Normal,0.903,None,None,NaN,0,0
111,high,No Target,Normal,NaN,None,None,NaN,999,0
112,high,No Target,Critical,NaN,0.776,tone2,0.46299999999999986,999,1
113,high,No Target,Normal,NaN,None,None,NaN,999,0
114,high,No Target,Normal,NaN,None,None,NaN,999,0
115,high,No Target,Normal,NaN,None,None,NaN,999,0
116,high,No Target,Normal,NaN,None,None,NaN,999,0
117,high,No Target,Normal,NaN,None,None,NaN,999,0
118,high,No Target,Critical,NaN,0.156,tone1,0.529,999,1
119,high,Target Absent,Critical,0.875,0.802,tone1,0.44899999999999984,999,1
120,high,No Target,Normal,NaN,None,None,NaN,999,0
121,high,No Target,Normal,NaN,None,None,NaN,999,0
122,high,No Target,Critical,NaN,0.812,tone1,0.44299999999999984,999,1
123,high,No Target,Normal,NaN,None,None,NaN,999,0
124,high,No Target,Normal,NaN,None,None,NaN,999,0
125,high,No Target,Normal,NaN,None,None,NaN,999,0
126,high,No Target,Normal,NaN,None,None,NaN,999,0
127,high,No Target,Normal,NaN,None,None,NaN,999,0
128,high,Target Absent,Normal,0.774,None,None,NaN,0,0
129,high,No Target,Normal,NaN,None,None,NaN,999,0
130,high,No Target,Normal,NaN,None,None,NaN,999,0
131,high,No Target,Critical,NaN,0.406,tone2,0.493,999,1
132,high,No Target,Normal,NaN,None,None,NaN,999,0
133,high,No Target,Normal,NaN,None,None,NaN,999,0
134,high,No Target,Critical,NaN,0.788,tone1,0.575,999,1
135,high,No Target,Normal,NaN,None,None,NaN,999,0
136,high,No Target,Normal,NaN,None,None,NaN,999,0
137,high,No Target,Critical,NaN,0.178,tone3,0.437,999,1
138,high,No Target,Normal,NaN,None,None,NaN,999,0
139,high,No Target,Normal,NaN,None,None,NaN,999,0
140,high,No Target,Normal,NaN,None,None,NaN,999,0
141,high,No Target,Normal,NaN,None,None,NaN,999,0
142,high,No Target,Critical,NaN,0.496,tone3,NaN,999,0
143,high,No Target,Normal,NaN,None,None,NaN,999,0
144,high,No Target,Normal,NaN,None,None,NaN,999,0
145,high,No Target,Normal,NaN,None,None,NaN,999,0
146,high,No Target,Normal,NaN,None,None,NaN,999,0
147,high,No Target,Normal,NaN,None,None,NaN,999,0
148,high,No Target,Normal,NaN,None,None,NaN,999,0
149,high,No Target,Normal,NaN,None,None,NaN,999,0
150,high,No Target,Normal,NaN,None,None,NaN,999,0
151,high,No Target,Normal,NaN,None,None,NaN,999,0
152,high,No Target,Normal,NaN,None,None,NaN,999,0
153,high,No Target,Critical,NaN,0.273,tone4,0.489,999,1
154,high,No Target,Normal,NaN,None,None,NaN,999,0
155,high,No Target,Normal,NaN,None,None,NaN,999,0
156,high,No Target,Normal,NaN,None,None,NaN,999,0
157,high,No Target,Normal,NaN,None,None,NaN,999,0
158,high,No Target,Normal,NaN,None,None,NaN,999,0
159,high,No Target,Normal,NaN,None,None,NaN,999,0
160,high,No Target,Normal,NaN,None,None,NaN,999,0
161,high,No Target,Normal,NaN,None,None,NaN,999,0
162,high,Target Absent,Normal,0.7130000000000001,None,None,NaN,1,0
163,high,Target Present,Normal,0.651,None,None,NaN,1,0
164,high,No Target,Normal,NaN,None,None,NaN,999,0
165,high,Target Present,Normal,0.7425,None,None,NaN,1,0
166,high,Target Present,Normal,0.758,None,None,NaN,1,0
167,high,No Target,Critical,NaN,0.934,tone1,NaN,999,0
168,high,No Target,Normal,NaN,None,None,NaN,999,0
169,high,No Target,Normal,NaN,None,None,NaN,999,0
170,high,No Target,Critical,NaN,0.427,tone3,0.6063768115942029,999,1
171,high,No Target,Normal,NaN,None,None,NaN,999,0
172,high,No Target,Normal,NaN,None,None,NaN,999,0
173,high,No Target,Normal,NaN,None,None,NaN,999,0
174,high,No Target,Normal,NaN,None,None,NaN,999,0
175,high,No Target,Normal,NaN,None,None,NaN,999,0
176,high,No Target,Normal,NaN,None,None,NaN,999,0
177,high,No Target,Normal,NaN,None,None,NaN,999,0
178,high,No Target,Critical,NaN,0.984,tone1,0.4730000000000001,999,1
179,high,Target Absent,Normal,0.641,None,None,NaN,1,0
180,low,No Target,Normal,NaN,None,None,NaN,999,0
181,low,No Target,Normal,NaN,None,None,NaN,999,0
182,low,No Target,Normal,NaN,None,None,0.487,999,0
183,low,No Target,Normal,NaN,None,None,NaN,999,0
184,low,No Target,Normal,NaN,None,None,NaN,999,0
185,low,No Target,Normal,NaN,None,None,NaN,999,0
186,low,No Target,Normal,NaN,None,None,NaN,999,0
187,low,No Target,Critical,NaN,0.658,tone3,0.8509999999999999,999,1
188,low,No Target,Normal,NaN,None,None,NaN,999,0
189,low,No Target,Normal,NaN,None,None,NaN,999,0
190,low,No Target,Critical,NaN,0.616,tone1,NaN,999,0
191,low,No Target,Normal,NaN,None,None,NaN,999,0
192,low,No Target,Critical,NaN,0.503,tone3,NaN,999,0
193,low,No Target,Normal,NaN,None,None,NaN,999,0
194,low,Target Present,Normal,0.667,None,None,NaN,1,0
195,low,No Target,Normal,NaN,None,None,NaN,999,0
196,low,Target Present,Normal,0.661,None,None,NaN,1,0
197,low,No Target,Normal,NaN,None,None,NaN,999,0
198,low,No Target,Normal,NaN,None,None,NaN,999,0
199,low,No Target,Normal,NaN,None,None,NaN,999,0
200,low,No Target,Critical,NaN,0.35,tone1,0.536,999,1
201,low,No Target,Normal,NaN,None,None,NaN,999,0
202,low,No Target,Normal,NaN,None,None,NaN,999,0
203,low,No Target,Normal,NaN,None,None,NaN,999,0
204,low,No Target,Normal,NaN,None,None,NaN,999,0
205,low,No Target,Normal,NaN,None,None,NaN,999,0
206,low,No Target,Normal,NaN,None,None,NaN,999,0
207,low,No Target,Normal,NaN,None,None,NaN,999,0
208,low,No Target,Normal,NaN,None,None,0.519,999,0
209,low,No Target,Normal,NaN,None,None,NaN,999,0
210,low,No Target,Normal,NaN,None,None,NaN,999,0
211,low,No Target,Normal,NaN,None,None,NaN,999,0
212,low,No Target,Normal,NaN,None,None,NaN,999,0
213,low,No Target,Normal,NaN,None,None,NaN,999,0
214,low,No Target,Normal,NaN,None,None,NaN,999,0
215,low,No Target,Normal,NaN,None,None,NaN,999,0
216,low,No Target,Normal,NaN,None,None,NaN,999,0
217,low,No Target,Critical,NaN,0.809,tone4,0.483,999,1
218,low,No Target,Normal,NaN,None,None,NaN,999,0
219,low,No Target,Normal,NaN,None,None,NaN,999,0
220,low,Target Absent,Normal,0.6479999999999999,None,None,NaN,1,0
221,low,No Target,Normal,NaN,None,None,NaN,999,0
222,low,No Target,Normal,NaN,None,None,NaN,999,0
223,low,No Target,Normal,NaN,None,None,NaN,999,0
224,low,No Target,Normal,NaN,None,None,NaN,999,0
225,low,No Target,Normal,NaN,None,None,NaN,999,0
226,low,No Target,Critical,NaN,0.252,tone2,0.45599999999999996,999,1
227,low,No Target,Normal,NaN,None,None,NaN,999,0
228,low,Target Absent,Critical,0.744,0.238,tone4,0.41800000000000004,999,1
229,low,No Target,Normal,NaN,None,None,NaN,999,0
230,low,No Target,Normal,NaN,None,None,NaN,999,0
231,low,No Target,Normal,NaN,None,None,NaN,999,0
232,low,No Target,Normal,NaN,None,None,NaN,999,0
233,low,No Target,Normal,NaN,None,None,NaN,999,0
234,low,No Target,Critical,NaN,0.273,tone2,0.44699999999999995,999,1
235,low,Target Absent,Normal,0.687,None,None,NaN,1,0
236,low,No Target,Normal,NaN,None,None,NaN,999,0
237,low,No Target,Normal,NaN,None,None,NaN,999,0
238,low,No Target,Critical,NaN,0.802,tone3,0.403,999,1
239,low,Target Present,Normal,0.613,None,None,NaN,1,0
240,high,No Target,Critical,NaN,0.825,tone4,0.45300000000000007,999,1
241,high,No Target,Normal,NaN,None,None,NaN,999,0
242,high,No Target,Normal,NaN,None,None,NaN,999,0
243,high,No Target,Normal,NaN,None,None,NaN,999,0
244,high,No Target,Normal,NaN,None,None,NaN,999,0
245,high,No Target,Normal,NaN,None,None,NaN,999,0
246,high,Target Present,Critical,0.605,0.438,tone2,0.5269999999999999,999,1
247,high,No Target,Normal,NaN,None,None,NaN,999,0
248,high,No Target,Normal,NaN,None,None,NaN,999,0
249,high,No Target,Normal,NaN,None,None,NaN,999,0
250,high,No Target,Normal,NaN,None,None,NaN,999,0
251,high,No Target,Normal,NaN,None,None,NaN,999,0
252,high,No Target,Normal,NaN,None,None,NaN,999,0
253,high,No Target,Normal,NaN,None,None,NaN,999,0
254,high,No Target,Normal,NaN,None,None,NaN,999,0
255,high,No Target,Normal,NaN,None,None,NaN,999,0
256,high,No Target,Normal,NaN,None,None,NaN,999,0
257,high,No Target,Normal,NaN,None,None,NaN,999,0
258,high,No Target,Normal,NaN,None,None,NaN,999,0
259,high,No Target,Normal,NaN,None,None,NaN,999,0
260,high,No Target,Normal,NaN,None,None,NaN,999,0
261,high,No Target,Critical,NaN,0.934,tone4,0.4259999999999998,999,1
262,high,No Target,Normal,NaN,None,None,NaN,999,0
263,high,No Target,Normal,NaN,None,None,NaN,999,0
264,high,No Target,Normal,NaN,None,None,NaN,999,0
265,high,No Target,Normal,NaN,None,None,NaN,999,0
266,high,No Target,Normal,NaN,None,None,NaN,999,0
267,high,No Target,Critical,NaN,0.984,tone3,0.478,999,1
268,high,No Target,Normal,NaN,None,None,NaN,999,0
269,high,No Target,Normal,NaN,None,None,NaN,999,0
270,high,No Target,Normal,NaN,None,None,NaN,999,0
271,high,No Target,Normal,NaN,None,None,NaN,999,0
272,high,No Target,Normal,NaN,None,None,NaN,999,0
273,high,No Target,Normal,NaN,None,None,NaN,999,0
274,high,No Target,Normal,NaN,None,None,NaN,999,0
275,high,No Target,Normal,NaN,None,None,NaN,999,0
276,high,Target Absent,Critical,0.6459999999999999,0.503,tone1,0.45499999999999996,999,1
277,high,No Target,Normal,NaN,None,None,NaN,999,0
278,high,No Target,Normal,NaN,None,None,NaN,999,0
279,high,No Target,Critical,NaN,0.273,tone1,0.43199999999999994,999,1
280,high,No Target,Normal,NaN,None,None,NaN,999,0
281,high,No Target,Normal,NaN,None,None,NaN,999,0
282,high,No Target,Normal,NaN,None,None,NaN,999,0
283,high,No Target,Normal,NaN,None,None,NaN,999,0
284,high,No Target,Normal,NaN,None,None,NaN,999,0
285,high,No Target,Normal,NaN,None,None,NaN,999,0
286,high,No Target,Normal,NaN,None,None,NaN,999,0
287,high,Target Present,Normal,0.6499999999999999,None,None,NaN,1,0
288,high,No Target,Normal,NaN,None,None,NaN,999,0
289,high,No Target,Critical,NaN,0.447,tone3,NaN,999,0
290,high,No Target,Normal,NaN,None,None,NaN,999,0
291,high,No Target,Normal,NaN,None,None,NaN,999,0
292,high,Target Absent,Critical,0.935,0.658,tone1,0.6209999999999999,999,1
293,high,No Target,Normal,NaN,None,None,NaN,999,0
294,high,No Target,Normal,NaN,None,None,NaN,999,0
295,high,Target Present,Normal,0.605,None,None,NaN,1,0
296,high,No Target,Normal,NaN,None,None,NaN,999,0
297,high,No Target,Normal,NaN,None,None,NaN,999,0
298,high,No Target,Critical,NaN,0.981,tone4,0.561,999,1
299,high,Target Absent,Normal,0.806,None,None,NaN,1,0
300,low,No Target,Normal,NaN,None,None,NaN,999,0
301,low,No Target,Critical,NaN,0.919,tone4,0.488,999,1
302,low,No Target,Normal,NaN,None,None,NaN,999,0
303,low,No Target,Normal,NaN,None,None,NaN,999,0
304,low,No Target,Normal,NaN,None,None,NaN,999,0
305,low,No Target,Critical,NaN,0.238,tone3,0.45999999999999996,999,1
306,low,No Target,Normal,NaN,None,None,NaN,999,0
307,low,No Target,Normal,NaN,None,None,NaN,999,0
308,low,No Target,Normal,NaN,None,None,NaN,999,0
309,low,No Target,Normal,NaN,None,None,NaN,999,0
310,low,No Target,Normal,NaN,None,None,NaN,999,0
311,low,No Target,Normal,NaN,None,None,NaN,999,0
312,low,No Target,Normal,NaN,None,None,NaN,999,0
313,low,No Target,Normal,NaN,None,None,NaN,999,0
314,low,No Target,Normal,NaN,None,None,NaN,999,0
315,low,No Target,Critical,NaN,0.803,tone2,0.386,999,1
316,low,No Target,Normal,NaN,None,None,NaN,999,0
317,low,No Target,Critical,NaN,0.14,tone3,0.471,999,1
318,low,No Target,Normal,NaN,None,None,NaN,999,0
319,low,No Target,Normal,NaN,None,None,NaN,999,0
320,low,No Target,Normal,NaN,None,None,NaN,999,0
321,low,No Target,Normal,NaN,None,None,NaN,999,0
322,low,No Target,Normal,NaN,None,None,NaN,999,0
323,low,No Target,Normal,NaN,None,None,NaN,999,0
324,low,No Target,Normal,NaN,None,None,NaN,999,0
325,low,No Target,Critical,NaN,0.565,tone1,0.5090000000000001,999,1
326,low,No Target,Normal,NaN,None,None,NaN,999,0
327,low,No Target,Normal,NaN,None,None,NaN,999,0
328,low,No Target,Normal,NaN,None,None,NaN,999,0
329,low,Target Present,Normal,0.6439999999999999,None,None,NaN,1,0
330,low,No Target,Normal,NaN,None,None,NaN,999,0
331,low,No Target,Critical,NaN,0.438,tone4,0.48200000000000004,999,1
332,low,No Target,Normal,NaN,None,None,NaN,999,0
333,low,Target Absent,Normal,0.653,None,None,0.485,1,0
334,low,No Target,Normal,NaN,None,None,NaN,999,0
335,low,No Target,Normal,NaN,None,None,NaN,999,0
336,low,No Target,Normal,NaN,None,None,NaN,999,0
337,low,No Target,Normal,NaN,None,None,NaN,999,0
338,low,No Target,Normal,NaN,None,None,NaN,999,0
339,low,No Target,Normal,NaN,None,None,NaN,999,0
340,low,No Target,Normal,NaN,None,None,NaN,999,0
341,low,No Target,Normal,NaN,None,None,NaN,999,0
342,low,Target Absent,Critical,0.627,0.478,tone2,0.509,999,1
343,low,No Target,Normal,NaN,None,None,NaN,999,0
344,low,No Target,Normal,NaN,None,None,NaN,999,0
345,low,No Target,Normal,NaN,None,None,NaN,999,0
346,low,No Target,Normal,NaN,None,None,NaN,999,0
347,low,No Target,Normal,NaN,None,None,NaN,999,0
348,low,Target Present,Critical,0.7609999999999999,0.658,tone3,0.527,999,1
349,low,No Target,Normal,NaN,None,None,NaN,999,0
350,low,No Target,Normal,NaN,None,None,NaN,999,0
351,low,No Target,Normal,NaN,None,None,NaN,999,0
352,low,No Target,Normal,NaN,None,None,NaN,999,0
353,low,No Target,Normal,NaN,None,None,NaN,999,0
354,low,Target Present,Normal,0.633,None,None,NaN,1,0
355,low,No Target,Normal,NaN,None,None,NaN,999,0
356,low,No Target,Normal,NaN,None,None,NaN,999,0
357,low,No Target,Normal,NaN,None,None,NaN,999,0
358,low,No Target,Critical,NaN,0.401,tone3,0.488,999,1
359,low,Target Absent,Normal,0.647,None,None,NaN,1,0
360,low,No Target,Normal,NaN,None,None,NaN,999,0
361,low,No Target,Normal,NaN,None,None,NaN,999,0
362,low,No Target,Normal,NaN,None,None,NaN,999,0
363,low,No Target,Normal,NaN,None,None,NaN,999,0
364,low,No Target,Normal,NaN,None,None,NaN,999,0
365,low,No Target,Critical,NaN,0.485,tone4,0.507,999,1
366,low,No Target,Normal,NaN,None,None,NaN,999,0
367,low,No Target,Critical,NaN,0.494,tone1,0.41400000000000003,999,1
368,low,No Target,Normal,NaN,None,None,NaN,999,0
369,low,No Target,Normal,NaN,None,None,NaN,999,0
370,low,No Target,Normal,NaN,None,None,NaN,999,0
371,low,No Target,Normal,NaN,None,None,NaN,999,0
372,low,No Target,Normal,NaN,None,None,NaN,999,0
373,low,No Target,Normal,NaN,None,None,NaN,999,0
374,low,No Target,Normal,NaN,None,None,NaN,999,0
375,low,No Target,Normal,NaN,None,None,NaN,999,0
376,low,No Target,Normal,NaN,None,None,NaN,999,0
377,low,No Target,Critical,NaN,0.803,tone3,0.4049999999999999,999,1
378,low,No Target,Normal,NaN,None,None,NaN,999,0
379,low,No Target,Normal,NaN,None,None,NaN,999,0
380,low,No Target,Normal,NaN,None,None,NaN,999,0
381,low,No Target,Normal,NaN,None,None,NaN,999,0
382,low,No Target,Normal,NaN,None,None,NaN,999,0
383,low,No Target,Normal,NaN,None,None,NaN,999,0
384,low,No Target,Normal,NaN,None,None,NaN,999,0
385,low,No Target,Normal,NaN,None,None,NaN,999,0
386,low,No Target,Critical,NaN,0.351,tone4,0.46599999999999997,999,1
387,low,No Target,Normal,NaN,None,None,NaN,999,0
388,low,No Target,Normal,NaN,None,None,NaN,999,0
389,low,No Target,Normal,NaN,None,None,NaN,999,0
390,low,No Target,Normal,NaN,None,None,NaN,999,0
391,low,No Target,Normal,NaN,None,None,NaN,999,0
392,low,Target Present,Normal,0.621,None,None,NaN,1,0
393,low,No Target,Normal,NaN,None,None,NaN,999,0
394,low,No Target,Normal,NaN,None,None,NaN,999,0
395,low,No Target,Normal,NaN,None,None,NaN,999,0
396,low,Target Present,Normal,0.5980000000000001,None,None,NaN,1,0
397,low,No Target,Normal,NaN,None,None,NaN,999,0
398,low,No Target,Normal,NaN,None,None,NaN,999,0
399,low,No Target,Critical,NaN,0.991,tone3,0.37,999,1
400,low,No Target,Normal,NaN,None,None,NaN,999,0
401,low,Target Absent,Normal,0.7430000000000001,None,None,NaN,1,0
402,low,No Target,Normal,NaN,None,None,NaN,999,0
403,low,No Target,Normal,NaN,None,None,NaN,999,0
404,low,No Target,Normal,NaN,None,None,NaN,999,0
405,low,No Target,Normal,NaN,None,None,NaN,999,0
406,low,No Target,Normal,NaN,None,None,NaN,999,0
407,low,Target Absent,Normal,0.6160000000000001,None,None,NaN,1,0
408,low,No Target,Critical,NaN,0.316,tone1,0.538,999,1
409,low,Target Absent,Normal,0.6439999999999999,None,None,NaN,1,0
410,low,No Target,Normal,NaN,None,None,NaN,999,0
411,low,No Target,Normal,NaN,None,None,NaN,999,0
412,low,No Target,Critical,NaN,0.825,tone2,0.41900000000000004,999,1
413,low,No Target,Normal,NaN,None,None,NaN,999,0
414,low,No Target,Normal,NaN,None,None,NaN,999,0
415,low,No Target,Normal,NaN,None,None,NaN,999,0
416,low,No Target,Critical,NaN,0.775,tone2,0.398,999,1
417,low,No Target,Normal,NaN,None,None,NaN,999,0
418,low,No Target,Critical,NaN,0.659,tone1,0.46199999999999997,999,1
419,low,Target Present,Normal,0.8009999999999999,None,None,NaN,1,0
420,high,No Target,Normal,NaN,None,None,NaN,999,0
421,high,No Target,Normal,NaN,None,None,NaN,999,0
422,high,No Target,Normal,NaN,None,None,NaN,999,0
423,high,No Target,Critical,NaN,0.565,tone1,0.496,999,1
424,high,No Target,Normal,NaN,None,None,NaN,999,0
425,high,No Target,Normal,NaN,None,None,NaN,999,0
426,high,No Target,Normal,NaN,None,None,NaN,999,0
427,high,No Target,Normal,NaN,None,None,NaN,999,0
428,high,No Target,Normal,NaN,None,None,NaN,999,0
429,high,No Target,Normal,NaN,None,None,NaN,999,0
430,high,No Target,Normal,NaN,None,None,NaN,999,0
431,high,No Target,Normal,NaN,None,None,NaN,999,0
432,high,No Target,Normal,NaN,None,None,NaN,999,0
433,high,No Target,Normal,NaN,None,None,NaN,999,0
434,high,No Target,Normal,NaN,None,None,NaN,999,0
435,high,No Target,Normal,NaN,None,None,NaN,999,0
436,high,No Target,Critical,NaN,0.636,tone2,0.392,999,1
437,high,Target Absent,Normal,0.6120000000000001,None,None,NaN,1,0
438,high,No Target,Normal,NaN,None,None,NaN,999,0
439,high,Target Present,Normal,0.641,None,None,NaN,1,0
440,high,No Target,Normal,NaN,None,None,NaN,999,0
441,high,No Target,Normal,NaN,None,None,NaN,999,0
442,high,No Target,Normal,NaN,None,None,NaN,999,0
443,high,No Target,Normal,NaN,None,None,NaN,999,0
444,high,No Target,Critical,NaN,0.437,tone2,0.467,999,1
445,high,No Target,Normal,NaN,None,None,NaN,999,0
446,high,Target Present,Normal,0.78,None,None,NaN,1,0
447,high,No Target,Normal,NaN,None,None,NaN,999,0
448,high,No Target,Normal,NaN,None,None,NaN,999,0
449,high,No Target,Normal,NaN,None,None,NaN,999,0
450,high,Target Present,Normal,0.5740000000000001,None,None,NaN,1,0
451,high,No Target,Critical,NaN,0.273,tone4,0.573,999,1
452,high,No Target,Normal,NaN,None,None,NaN,999,0
453,high,No Target,Normal,NaN,None,None,NaN,999,0
454,high,No Target,Normal,NaN,None,None,NaN,999,0
455,high,No Target,Critical,NaN,0.023,tone4,0.64,999,1
456,high,No Target,Normal,NaN,None,None,NaN,999,0
457,high,No Target,Normal,NaN,None,None,NaN,999,0
458,high,No Target,Normal,NaN,None,None,NaN,999,0
459,high,Target Absent,Normal,1.0150000000000001,None,None,NaN,1,0
460,high,No Target,Normal,NaN,None,None,NaN,999,0
461,high,No Target,Critical,NaN,0.653,tone1,0.47699999999999987,999,1
462,high,No Target,Normal,NaN,None,None,NaN,999,0
463,high,No Target,Normal,NaN,None,None,NaN,999,0
464,high,No Target,Normal,NaN,None,None,NaN,999,0
465,high,No Target,Normal,NaN,None,None,NaN,999,0
466,high,No Target,Normal,NaN,None,None,NaN,999,0
467,high,No Target,Normal,NaN,None,None,NaN,999,0
468,high,No Target,Normal,NaN,None,None,NaN,999,0
469,high,No Target,Normal,NaN,None,None,NaN,999,0
470,high,No Target,Critical,NaN,0.478,tone1,NaN,999,0
471,high,No Target,Normal,NaN,None,None,NaN,999,0
472,high,No Target,Normal,NaN,None,None,NaN,999,0
473,high,No Target,Critical,NaN,0.59,tone3,0.45400000000000007,999,1
474,high,No Target,Normal,NaN,None,None,NaN,999,0
475,high,No Target,Normal,NaN,None,None,NaN,999,0
476,high,No Target,Normal,NaN,None,None,NaN,999,0
477,high,No Target,Normal,NaN,None,None,NaN,999,0
478,high,No Target,Critical,NaN,0.802,tone4,0.46399999999999997,999,1
479,high,Target Absent,Normal,0.6579999999999999,None,None,NaN,1,0
