,Audio,RT_VS,Sound_Onset,RT_TO,Acc_VS,Acc_DT,Load,Trial_Type,Sound_Hz
0,Normal,NaN,None,NaN,999,999,low,No Target,None
1,Critical,NaN,0.424,1.1102236842105262,999,1,low,No Target,tone4
2,Normal,NaN,None,NaN,999,999,low,No Target,None
3,Normal,NaN,None,NaN,999,999,low,No Target,None
4,Normal,NaN,None,NaN,999,999,low,No Target,None
5,Normal,NaN,None,NaN,999,999,low,No Target,None
6,Critical,NaN,0.735,0.4600000000000001,999,1,low,No Target,tone4
7,Normal,NaN,None,NaN,999,999,low,No Target,None
8,Normal,NaN,None,NaN,999,999,low,No Target,None
9,Critical,NaN,0.71,0.42399999999999993,999,1,low,No Target,tone1
10,Normal,NaN,None,NaN,999,999,low,No Target,None
11,Normal,NaN,None,NaN,999,999,low,No Target,None
12,Critical,1.9460000000000002,0.984,0.474,999,1,low,Target Absent,tone4
13,Normal,NaN,None,NaN,999,999,low,No Target,None
14,Normal,NaN,None,NaN,999,999,low,No Target,None
15,Normal,NaN,None,NaN,999,999,low,No Target,None
16,Normal,0.9099999999999999,None,NaN,1,999,low,Target Present,None
17,Normal,NaN,None,NaN,999,999,low,No Target,None
18,Normal,NaN,None,NaN,999,999,low,No Target,None
19,Normal,NaN,None,NaN,999,999,low,No Target,None
20,Normal,NaN,None,NaN,999,999,low,No Target,None
21,Normal,NaN,None,NaN,999,999,low,No Target,None
22,Critical,NaN,0.977,0.41300000000000014,999,1,low,No Target,tone1
23,Normal,NaN,None,NaN,999,999,low,No Target,None
24,Normal,NaN,None,NaN,999,999,low,No Target,None
25,Normal,NaN,None,NaN,999,999,low,No Target,None
26,Normal,NaN,None,0.568,666,666,low,No Target,None
27,Normal,NaN,None,NaN,999,999,low,No Target,None
28,Normal,NaN,None,NaN,999,999,low,No Target,None
29,Normal,1.746,None,NaN,0,999,low,Target Absent,None
30,Normal,NaN,None,NaN,999,999,low,No Target,None
31,Normal,NaN,None,NaN,999,999,low,No Target,None
32,Normal,1.616,None,NaN,1,999,low,Target Present,None
33,Normal,NaN,None,NaN,999,999,low,No Target,None
34,Normal,NaN,None,NaN,999,999,low,No Target,None
35,Normal,NaN,None,NaN,999,999,low,No Target,None
36,Critical,NaN,0.704,0.40700000000000003,999,1,low,No Target,tone4
37,Normal,NaN,None,NaN,999,999,low,No Target,None
38,Normal,NaN,None,NaN,999,999,low,No Target,None
39,Critical,NaN,0.577,0.45599999999999996,999,1,low,No Target,tone4
40,Normal,NaN,None,NaN,999,999,low,No Target,None
41,Normal,NaN,None,NaN,999,999,low,No Target,None
42,Normal,1.621,None,1.454,666,666,low,Target Absent,None
43,Normal,NaN,None,NaN,999,999,low,No Target,None
44,Normal,NaN,None,NaN,999,999,low,No Target,None
45,Critical,NaN,0.477,0.7140000000000001,999,1,low,No Target,tone3
46,Normal,NaN,None,NaN,999,999,low,No Target,None
47,Normal,NaN,None,NaN,999,999,low,No Target,None
48,Normal,NaN,None,NaN,999,999,low,No Target,None
49,Normal,NaN,None,0.945,666,666,low,No Target,None
50,Critical,NaN,0.363,0.637,999,1,low,No Target,tone2
51,Normal,NaN,None,NaN,999,999,low,No Target,None
52,Normal,NaN,None,NaN,999,999,low,No Target,None
53,Normal,1.697,None,NaN,1,999,low,Target Present,None
54,Normal,NaN,None,NaN,999,999,low,No Target,None
55,Normal,NaN,None,NaN,999,999,low,No Target,None
56,Normal,NaN,None,NaN,999,999,low,No Target,None
57,Normal,NaN,None,NaN,999,999,low,No Target,None
58,Normal,NaN,None,NaN,999,999,low,No Target,None
59,Normal,NaN,None,NaN,999,999,low,No Target,None
60,Normal,NaN,None,NaN,999,999,high,No Target,None
61,Normal,NaN,None,NaN,999,999,high,No Target,None
62,Normal,NaN,None,NaN,999,999,high,No Target,None
63,Critical,NaN,0.563,0.5800000000000001,999,1,high,No Target,tone1
64,Normal,NaN,None,NaN,999,999,high,No Target,None
65,Normal,NaN,None,NaN,999,999,high,No Target,None
66,Critical,NaN,0.313,0.6100000000000001,999,1,high,No Target,tone3
67,Normal,NaN,None,NaN,999,999,high,No Target,None
68,Normal,NaN,None,NaN,999,999,high,No Target,None
69,Normal,NaN,None,NaN,999,999,high,No Target,None
70,Normal,1.6429999999999998,None,NaN,0,999,high,Target Present,None
71,Normal,NaN,None,NaN,999,999,high,No Target,None
72,Normal,NaN,None,NaN,999,999,high,No Target,None
73,Critical,NaN,0.76,0.4909999999999999,999,1,high,No Target,tone4
74,Normal,NaN,None,NaN,999,999,high,No Target,None
75,Normal,NaN,None,NaN,999,999,high,No Target,None
76,Critical,NaN,0.155,0.5399999999999999,999,1,high,No Target,tone2
77,Normal,NaN,None,NaN,999,999,high,No Target,None
78,Normal,NaN,None,NaN,999,999,high,No Target,None
79,Normal,NaN,None,NaN,999,999,high,No Target,None
80,Normal,NaN,None,NaN,999,999,high,No Target,None
81,Critical,1.3308125,0.928,0.5019999999999999,999,999,high,Target Absent,tone2
82,Normal,NaN,None,NaN,999,999,high,No Target,None
83,Normal,NaN,None,NaN,999,999,high,No Target,None
84,Normal,NaN,None,NaN,999,999,high,No Target,None
85,Critical,1.3599999999999999,0.704,0.744,999,999,high,Target Present,tone3
86,Normal,NaN,None,NaN,999,999,high,No Target,None
87,Normal,NaN,None,NaN,999,999,high,No Target,None
88,Normal,NaN,None,NaN,999,999,high,No Target,None
89,Normal,NaN,None,NaN,999,999,high,No Target,None
90,Normal,1.209,None,NaN,0,999,high,Target Present,None
91,Normal,NaN,None,NaN,999,999,high,No Target,None
92,Normal,NaN,None,NaN,999,999,high,No Target,None
93,Critical,NaN,0.354,1.1102236842105262,999,1,high,No Target,tone1
94,Normal,NaN,None,NaN,999,999,high,No Target,None
95,Normal,NaN,None,NaN,999,999,high,No Target,None
96,Normal,NaN,None,NaN,999,999,high,No Target,None
97,Critical,NaN,0.773,0.4859999999999999,999,1,high,No Target,tone3
98,Normal,NaN,None,NaN,999,999,high,No Target,None
99,Normal,NaN,None,NaN,999,999,high,No Target,None
100,Normal,1.5259999999999998,None,NaN,1,999,high,Target Absent,None
101,Normal,NaN,None,NaN,999,999,high,No Target,None
102,Normal,NaN,None,NaN,999,999,high,No Target,None
103,Normal,NaN,None,NaN,999,999,high,No Target,None
104,Normal,NaN,None,NaN,999,999,high,No Target,None
105,Normal,1.569,None,NaN,0,999,high,Target Absent,None
106,Normal,NaN,None,NaN,999,999,high,No Target,None
107,Normal,NaN,None,NaN,999,999,high,No Target,None
108,Critical,NaN,0.083,0.5870000000000001,999,1,high,No Target,tone4
109,Normal,NaN,None,NaN,999,999,high,No Target,None
110,Normal,NaN,None,NaN,999,999,high,No Target,None
111,Normal,NaN,None,NaN,999,999,high,No Target,None
112,Normal,NaN,None,NaN,999,999,high,No Target,None
113,Normal,NaN,None,NaN,999,999,high,No Target,None
114,Normal,NaN,None,NaN,999,999,high,No Target,None
115,Normal,NaN,None,NaN,999,999,high,No Target,None
116,Normal,NaN,None,NaN,999,999,high,No Target,None
117,Normal,NaN,None,NaN,999,999,high,No Target,None
118,Normal,NaN,None,NaN,999,999,high,No Target,None
119,Normal,NaN,None,NaN,999,999,high,No Target,None
120,Normal,NaN,None,NaN,999,999,high,No Target,None
121,Critical,1.588,0.358,NaN,999,0,high,Target Present,tone1
122,Normal,NaN,None,NaN,999,999,high,No Target,None
123,Normal,NaN,None,NaN,999,999,high,No Target,None
124,Normal,NaN,None,NaN,999,999,high,No Target,None
125,Normal,1.166,None,NaN,1,999,high,Target Absent,None
126,Normal,NaN,None,NaN,999,999,high,No Target,None
127,Normal,NaN,None,NaN,999,999,high,No Target,None
128,Normal,NaN,None,NaN,999,999,high,No Target,None
129,Critical,NaN,0.555,0.636,999,1,high,No Target,tone3
130,Normal,NaN,None,NaN,999,999,high,No Target,None
131,Normal,NaN,None,NaN,999,999,high,No Target,None
132,Normal,1.0270000000000001,None,NaN,1,999,high,Target Present,None
133,Normal,NaN,None,NaN,999,999,high,No Target,None
134,Normal,NaN,None,NaN,999,999,high,No Target,None
135,Normal,NaN,None,NaN,999,999,high,No Target,None
136,Normal,NaN,None,NaN,999,999,high,No Target,None
137,Normal,NaN,None,NaN,999,999,high,No Target,None
138,Critical,NaN,0.854,0.126,999,1,high,No Target,tone4
139,Normal,NaN,None,NaN,999,999,high,No Target,None
140,Normal,NaN,None,NaN,999,999,high,No Target,None
141,Critical,NaN,0.39,0.44399999999999995,999,1,high,No Target,tone2
142,Normal,NaN,None,NaN,999,999,high,No Target,None
143,Normal,NaN,None,NaN,999,999,high,No Target,None
144,Normal,NaN,None,NaN,999,999,high,No Target,None
145,Normal,NaN,None,NaN,999,999,high,No Target,None
146,Critical,NaN,0.271,0.53,999,1,high,No Target,tone4
147,Normal,NaN,None,NaN,999,999,high,No Target,None
148,Normal,NaN,None,NaN,999,999,high,No Target,None
149,Normal,NaN,None,NaN,999,999,high,No Target,None
150,Normal,NaN,None,NaN,999,999,high,No Target,None
151,Normal,NaN,None,NaN,999,999,high,No Target,None
152,Normal,2.013,None,1.493,666,666,high,Target Absent,None
153,Normal,NaN,None,NaN,999,999,high,No Target,None
154,Normal,NaN,None,NaN,999,999,high,No Target,None
155,Normal,NaN,None,NaN,999,999,high,No Target,None
156,Normal,NaN,None,NaN,999,999,high,No Target,None
157,Critical,1.092,0.477,0.767,999,1,high,Target Absent,tone3
158,Normal,NaN,None,NaN,999,999,high,No Target,None
159,Normal,NaN,None,NaN,999,999,high,No Target,None
160,Critical,NaN,0.526,0.6199999999999999,999,1,high,No Target,tone3
161,Normal,NaN,None,NaN,999,999,high,No Target,None
162,Normal,NaN,None,NaN,999,999,high,No Target,None
163,Normal,NaN,None,NaN,999,999,high,No Target,None
164,Normal,NaN,None,NaN,999,999,high,No Target,None
165,Normal,NaN,None,NaN,999,999,high,No Target,None
166,Critical,NaN,0.93,0.477,999,1,high,No Target,tone4
167,Normal,NaN,None,NaN,999,999,high,No Target,None
168,Normal,NaN,None,NaN,999,999,high,No Target,None
169,Critical,NaN,0.977,0.4640000000000001,999,1,high,No Target,tone4
170,Normal,NaN,None,NaN,999,999,high,No Target,None
171,Normal,NaN,None,NaN,999,999,high,No Target,None
172,Normal,1.3308125,None,NaN,0,999,high,Target Present,None
173,Normal,NaN,None,NaN,999,999,high,No Target,None
174,Normal,NaN,None,NaN,999,999,high,No Target,None
175,Normal,NaN,None,NaN,999,999,high,No Target,None
176,Normal,NaN,None,NaN,999,999,high,No Target,None
177,Normal,NaN,None,NaN,999,999,high,No Target,None
178,Normal,NaN,None,NaN,999,999,high,No Target,None
179,Normal,NaN,None,NaN,999,999,high,No Target,None
180,Critical,NaN,0.724,0.41100000000000003,999,1,low,No Target,tone3
181,Normal,NaN,None,NaN,999,999,low,No Target,None
182,Normal,NaN,None,NaN,999,999,low,No Target,None
183,Normal,NaN,None,NaN,999,999,low,No Target,None
184,Critical,NaN,0.786,0.43700000000000006,999,1,low,No Target,tone1
185,Normal,NaN,None,NaN,999,999,low,No Target,None
186,Normal,NaN,None,NaN,999,999,low,No Target,None
187,Normal,NaN,None,NaN,999,999,low,No Target,None
188,Critical,1.194,0.555,0.551,999,1,low,Target Present,tone4
189,Normal,NaN,None,NaN,999,999,low,No Target,None
190,Normal,NaN,None,NaN,999,999,low,No Target,None
191,Normal,NaN,None,NaN,999,999,low,No Target,None
192,Normal,NaN,None,NaN,999,999,low,No Target,None
193,Normal,0.994,None,NaN,1,999,low,Target Absent,None
194,Normal,NaN,None,NaN,999,999,low,No Target,None
195,Normal,NaN,None,NaN,999,999,low,No Target,None
196,Critical,NaN,0.287,NaN,999,0,low,No Target,tone1
197,Normal,NaN,None,NaN,999,999,low,No Target,None
198,Normal,NaN,None,NaN,999,999,low,No Target,None
199,Critical,1.496,0.643,0.573,999,1,low,Target Absent,tone4
200,Normal,NaN,None,NaN,999,999,low,No Target,None
201,Normal,NaN,None,NaN,999,999,low,No Target,None
202,Normal,NaN,None,NaN,999,999,low,No Target,None
203,Normal,NaN,None,NaN,999,999,low,No Target,None
204,Normal,0.917,None,NaN,1,999,low,Target Present,None
205,Normal,NaN,None,NaN,999,999,low,No Target,None
206,Normal,NaN,None,NaN,999,999,low,No Target,None
207,Normal,NaN,None,NaN,999,999,low,No Target,None
208,Normal,NaN,None,NaN,999,999,low,No Target,None
209,Normal,0.968,None,NaN,1,999,low,Target Absent,None
210,Normal,NaN,None,NaN,999,999,low,No Target,None
211,Normal,NaN,None,NaN,999,999,low,No Target,None
212,Normal,NaN,None,NaN,999,999,low,No Target,None
213,Normal,NaN,None,NaN,999,999,low,No Target,None
214,Critical,NaN,0.838,0.6330000000000001,999,1,low,No Target,tone3
215,Normal,NaN,None,NaN,999,999,low,No Target,None
216,Normal,NaN,None,NaN,999,999,low,No Target,None
217,Normal,NaN,None,NaN,999,999,low,No Target,None
218,Normal,NaN,None,NaN,999,999,low,No Target,None
219,Normal,NaN,None,NaN,999,999,low,No Target,None
220,Normal,1.549,None,NaN,1,999,low,Target Present,None
221,Normal,NaN,None,NaN,999,999,low,No Target,None
222,Normal,NaN,None,NaN,999,999,low,No Target,None
223,Normal,NaN,None,NaN,999,999,low,No Target,None
224,Critical,NaN,0.678,0.16899999999999993,999,1,low,No Target,tone1
225,Normal,NaN,None,NaN,999,999,low,No Target,None
226,Normal,NaN,None,NaN,999,999,low,No Target,None
227,Critical,NaN,0.419,0.599,999,1,low,No Target,tone2
228,Normal,NaN,None,NaN,999,999,low,No Target,None
229,Normal,NaN,None,NaN,999,999,low,No Target,None
230,Normal,NaN,None,NaN,999,999,low,No Target,None
231,Critical,NaN,0.287,1.1102236842105262,999,1,low,No Target,tone1
232,Normal,NaN,None,NaN,999,999,low,No Target,None
233,Normal,NaN,None,NaN,999,999,low,No Target,None
234,Normal,NaN,None,NaN,999,999,low,No Target,None
235,Normal,NaN,None,NaN,999,999,low,No Target,None
236,Normal,NaN,None,NaN,999,999,low,No Target,None
237,Normal,NaN,None,NaN,999,999,low,No Target,None
238,Normal,NaN,None,0.687,666,666,low,No Target,None
239,Normal,NaN,None,NaN,999,999,low,No Target,None
240,Normal,NaN,None,NaN,999,999,high,No Target,None
241,Normal,NaN,None,NaN,999,999,high,No Target,None
242,Normal,NaN,None,NaN,999,999,high,No Target,None
243,Normal,0.9319999999999999,None,NaN,1,999,high,Target Present,None
244,Normal,NaN,None,NaN,999,999,high,No Target,None
245,Normal,NaN,None,NaN,999,999,high,No Target,None
246,Critical,NaN,0.555,0.6449999999999999,999,1,high,No Target,tone1
247,Normal,NaN,None,NaN,999,999,high,No Target,None
248,Normal,NaN,None,NaN,999,999,high,No Target,None
249,Normal,1.596,None,NaN,1,999,high,Target Present,None
250,Normal,NaN,None,NaN,999,999,high,No Target,None
251,Normal,NaN,None,NaN,999,999,high,No Target,None
252,Critical,NaN,0.563,0.8270000000000002,999,1,high,No Target,tone2
253,Normal,NaN,None,NaN,999,999,high,No Target,None
254,Normal,NaN,None,NaN,999,999,high,No Target,None
255,Normal,NaN,None,NaN,999,999,high,No Target,None
256,Critical,NaN,0.584,0.43000000000000005,999,1,high,No Target,tone4
257,Normal,NaN,None,NaN,999,999,high,No Target,None
258,Normal,NaN,None,NaN,999,999,high,No Target,None
259,Critical,1.475,0.649,0.514,999,999,high,Target Absent,tone4
260,Normal,NaN,None,NaN,999,999,high,No Target,None
261,Normal,NaN,None,NaN,999,999,high,No Target,None
262,Normal,NaN,None,NaN,999,999,high,No Target,None
263,Normal,0.865,None,NaN,1,999,high,Target Absent,None
264,Normal,NaN,None,NaN,999,999,high,No Target,None
265,Normal,NaN,None,NaN,999,999,high,No Target,None
266,Critical,NaN,0.846,0.594,999,1,high,No Target,tone2
267,Normal,NaN,None,NaN,999,999,high,No Target,None
268,Normal,NaN,None,NaN,999,999,high,No Target,None
269,Normal,1.1800000000000002,None,NaN,1,999,high,Target Absent,None
270,Normal,NaN,None,NaN,999,999,high,No Target,None
271,Normal,NaN,None,NaN,999,999,high,No Target,None
272,Normal,NaN,None,NaN,999,999,high,No Target,None
273,Normal,NaN,None,NaN,999,999,high,No Target,None
274,Critical,NaN,0.29,0.603,999,1,high,No Target,tone4
275,Normal,NaN,None,NaN,999,999,high,No Target,None
276,Normal,NaN,None,NaN,999,999,high,No Target,None
277,Normal,NaN,None,0.127,666,666,high,No Target,None
278,Normal,NaN,None,NaN,999,999,high,No Target,None
279,Normal,NaN,None,NaN,999,999,high,No Target,None
280,Normal,1.194,None,NaN,0,999,high,Target Present,None
281,Normal,NaN,None,NaN,999,999,high,No Target,None
282,Normal,NaN,None,NaN,999,999,high,No Target,None
283,Normal,NaN,None,NaN,999,999,high,No Target,None
284,Critical,NaN,0.358,0.707,999,1,high,No Target,tone3
285,Normal,NaN,None,NaN,999,999,high,No Target,None
286,Normal,NaN,None,NaN,999,999,high,No Target,None
287,Critical,NaN,0.374,0.519,999,1,high,No Target,tone1
288,Normal,NaN,None,NaN,999,999,high,No Target,None
289,Normal,NaN,None,NaN,999,999,high,No Target,None
290,Normal,NaN,None,NaN,999,999,high,No Target,None
291,Normal,NaN,None,NaN,999,999,high,No Target,None
292,Normal,NaN,None,NaN,999,999,high,No Target,None
293,Normal,NaN,None,NaN,999,999,high,No Target,None
294,Normal,NaN,None,NaN,999,999,high,No Target,None
295,Normal,NaN,None,NaN,999,999,high,No Target,None
296,Critical,NaN,0.155,0.473,999,1,high,No Target,tone3
297,Normal,NaN,None,NaN,999,999,high,No Target,None
298,Normal,NaN,None,NaN,999,999,high,No Target,None
299,Normal,NaN,None,NaN,999,999,high,No Target,None
300,Normal,NaN,None,NaN,999,999,low,No Target,None
301,Normal,NaN,None,NaN,999,999,low,No Target,None
302,Normal,NaN,None,NaN,999,999,low,No Target,None
303,Normal,NaN,None,NaN,999,999,low,No Target,None
304,Normal,NaN,None,NaN,999,999,low,No Target,None
305,Normal,NaN,None,NaN,999,999,low,No Target,None
306,Normal,NaN,None,NaN,999,999,low,No Target,None
307,Normal,NaN,None,NaN,999,999,low,No Target,None
308,Normal,NaN,None,NaN,999,999,low,No Target,None
309,Normal,NaN,None,NaN,999,999,low,No Target,None
310,Critical,NaN,0.81,0.5089999999999999,999,1,low,No Target,tone2
311,Normal,NaN,None,NaN,999,999,low,No Target,None
312,Normal,NaN,None,NaN,999,999,low,No Target,None
313,Critical,NaN,0.474,1.1102236842105262,999,1,low,No Target,tone4
314,Normal,NaN,None,NaN,999,999,low,No Target,None
315,Normal,NaN,None,NaN,999,999,low,No Target,None
316,Normal,2.038,None,NaN,0,999,low,Target Absent,None
317,Normal,NaN,None,NaN,999,999,low,No Target,None
318,Normal,NaN,None,NaN,999,999,low,No Target,None
319,Normal,NaN,None,NaN,999,999,low,No Target,None
320,Normal,1.0379999999999998,None,NaN,1,999,low,Target Present,None
321,Normal,NaN,None,NaN,999,999,low,No Target,None
322,Normal,NaN,None,NaN,999,999,low,No Target,None
323,Normal,0.784,None,NaN,1,999,low,Target Present,None
324,Normal,NaN,None,NaN,999,999,low,No Target,None
325,Normal,NaN,None,NaN,999,999,low,No Target,None
326,Normal,NaN,None,NaN,999,999,low,No Target,None
327,Normal,NaN,None,NaN,999,999,low,No Target,None
328,Critical,NaN,0.364,0.628,999,1,low,No Target,tone2
329,Normal,NaN,None,NaN,999,999,low,No Target,None
330,Normal,NaN,None,NaN,999,999,low,No Target,None
331,Critical,NaN,0.583,0.506,999,1,low,No Target,tone3
332,Normal,NaN,None,NaN,999,999,low,No Target,None
333,Normal,NaN,None,NaN,999,999,low,No Target,None
334,Critical,NaN,0.846,0.469,999,1,low,No Target,tone3
335,Normal,NaN,None,NaN,999,999,low,No Target,None
336,Normal,NaN,None,NaN,999,999,low,No Target,None
337,Normal,1.584,None,NaN,1,999,low,Target Present,None
338,Normal,NaN,None,NaN,999,999,low,No Target,None
339,Normal,NaN,None,NaN,999,999,low,No Target,None
340,Normal,NaN,None,NaN,999,999,low,No Target,None
341,Normal,1.5859999999999999,None,NaN,1,999,low,Target Absent,None
342,Normal,NaN,None,NaN,999,999,low,No Target,None
343,Normal,NaN,None,NaN,999,999,low,No Target,None
344,Normal,NaN,None,NaN,999,999,low,No Target,None
345,Normal,NaN,None,NaN,999,999,low,No Target,None
346,Critical,NaN,0.555,0.549,999,1,low,No Target,tone2
347,Normal,NaN,None,NaN,999,999,low,No Target,None
348,Normal,NaN,None,NaN,999,999,low,No Target,None
349,Critical,NaN,0.362,0.554,999,1,low,No Target,tone3
350,Normal,NaN,None,NaN,999,999,low,No Target,None
351,Normal,NaN,None,NaN,999,999,low,No Target,None
352,Normal,0.9430000000000001,None,NaN,1,999,low,Target Absent,None
353,Normal,NaN,None,NaN,999,999,low,No Target,None
354,Normal,NaN,None,NaN,999,999,low,No Target,None
355,Critical,NaN,0.627,0.6639999999999999,999,1,low,No Target,tone2
356,Normal,NaN,None,NaN,999,999,low,No Target,None
357,Normal,NaN,None,NaN,999,999,low,No Target,None
358,Normal,NaN,None,NaN,999,999,low,No Target,None
359,Critical,NaN,0.584,NaN,999,0,low,No Target,tone4
360,Normal,0.9299999999999999,None,NaN,1,999,low,Target Absent,None
361,Normal,NaN,None,NaN,999,999,low,No Target,None
362,Normal,NaN,None,NaN,999,999,low,No Target,None
363,Critical,NaN,0.928,0.35,999,1,low,No Target,tone1
364,Normal,NaN,None,NaN,999,999,low,No Target,None
365,Normal,NaN,None,NaN,999,999,low,No Target,None
366,Normal,NaN,None,NaN,999,999,low,No Target,None
367,Normal,NaN,None,NaN,999,999,low,No Target,None
368,Critical,NaN,0.71,0.3900000000000001,999,1,low,No Target,tone3
369,Normal,NaN,None,NaN,999,999,low,No Target,None
370,Normal,NaN,None,NaN,999,999,low,No Target,None
371,Normal,NaN,None,NaN,999,999,low,No Target,None
372,Critical,NaN,0.728,0.44500000000000006,999,1,low,No Target,tone2
373,Normal,NaN,None,NaN,999,999,low,No Target,None
374,Normal,NaN,None,NaN,999,999,low,No Target,None
375,Normal,NaN,None,NaN,999,999,low,No Target,None
376,Normal,NaN,None,NaN,999,999,low,No Target,None
377,Normal,1.021,None,NaN,1,999,low,Target Present,None
378,Normal,NaN,None,NaN,999,999,low,No Target,None
379,Normal,NaN,None,NaN,999,999,low,No Target,None
380,Normal,NaN,None,NaN,999,999,low,No Target,None
381,Normal,1.2229999999999999,None,NaN,1,999,low,Target Present,None
382,Normal,NaN,None,NaN,999,999,low,No Target,None
383,Normal,NaN,None,NaN,999,999,low,No Target,None
384,Normal,0.9450000000000001,None,NaN,1,999,low,Target Absent,None
385,Normal,NaN,None,NaN,999,999,low,No Target,None
386,Normal,NaN,None,NaN,999,999,low,No Target,None
387,Normal,NaN,None,NaN,999,999,low,No Target,None
388,Normal,NaN,None,NaN,999,999,low,No Target,None
389,Normal,NaN,None,NaN,999,999,low,No Target,None
390,Normal,NaN,None,NaN,999,999,low,No Target,None
391,Normal,NaN,None,NaN,999,999,low,No Target,None
392,Normal,NaN,None,NaN,999,999,low,No Target,None
393,Normal,0.956,None,NaN,1,999,low,Target Absent,None
394,Normal,NaN,None,NaN,999,999,low,No Target,None
395,Normal,NaN,None,NaN,999,999,low,No Target,None
396,Critical,NaN,0.578,NaN,999,0,low,No Target,tone4
397,Normal,NaN,None,NaN,999,999,low,No Target,None
398,Normal,NaN,None,0.006,666,666,low,No Target,None
399,Critical,NaN,0.098,0.537,999,1,low,No Target,tone1
400,Normal,NaN,None,NaN,999,999,low,No Target,None
401,Normal,NaN,None,NaN,999,999,low,No Target,None
402,Normal,NaN,None,NaN,999,999,low,No Target,None
403,Critical,NaN,0.555,0.551,999,1,low,No Target,tone1
404,Normal,NaN,None,NaN,999,999,low,No Target,None
405,Normal,NaN,None,NaN,999,999,low,No Target,None
406,Normal,NaN,None,NaN,999,999,low,No Target,None
407,Normal,NaN,None,NaN,999,999,low,No Target,None
408,Normal,NaN,None,NaN,999,999,low,No Target,None
409,Critical,NaN,0.359,1.1102236842105262,999,1,low,No Target,tone4
410,Normal,NaN,None,NaN,999,999,low,No Target,None
411,Normal,NaN,None,NaN,999,999,low,No Target,None
412,Critical,0.9630000000000001,0.287,0.47600000000000003,999,999,low,Target Present,tone3
413,Normal,NaN,None,NaN,999,999,low,No Target,None
414,Normal,NaN,None,NaN,999,999,low,No Target,None
415,Normal,NaN,None,NaN,999,999,low,No Target,None
416,Critical,NaN,0.629,0.792,999,1,low,No Target,tone1
417,Normal,NaN,None,NaN,999,999,low,No Target,None
418,Normal,NaN,None,NaN,999,999,low,No Target,None
419,Normal,NaN,None,NaN,999,999,low,No Target,None
420,Normal,NaN,None,NaN,999,999,high,No Target,None
421,Critical,NaN,0.71,0.5310000000000001,999,1,high,No Target,tone1
422,Normal,NaN,None,NaN,999,999,high,No Target,None
423,Normal,NaN,None,NaN,999,999,high,No Target,None
424,Normal,NaN,None,NaN,999,999,high,No Target,None
425,Normal,1.0990000000000002,None,1.555,666,666,high,Target Present,None
426,Normal,NaN,None,NaN,999,999,high,No Target,None
427,Normal,NaN,None,NaN,999,999,high,No Target,None
428,Critical,NaN,0.627,0.9099999999999999,999,1,high,No Target,tone4
429,Normal,NaN,None,NaN,999,999,high,No Target,None
430,Normal,NaN,None,NaN,999,999,high,No Target,None
431,Normal,0.9890000000000001,None,NaN,1,999,high,Target Absent,None
432,Normal,NaN,None,NaN,999,999,high,No Target,None
433,Normal,NaN,None,NaN,999,999,high,No Target,None
434,Critical,NaN,0.026,0.5589999999999999,999,1,high,No Target,tone3
435,Normal,NaN,None,NaN,999,999,high,No Target,None
436,Normal,NaN,None,NaN,999,999,high,No Target,None
437,Normal,NaN,None,NaN,999,999,high,No Target,None
438,Normal,NaN,None,NaN,999,999,high,No Target,None
439,Normal,NaN,None,NaN,999,999,high,No Target,None
440,Normal,0.9339999999999999,None,NaN,1,999,high,Target Absent,None
441,Normal,NaN,None,NaN,999,999,high,No Target,None
442,Normal,NaN,None,NaN,999,999,high,No Target,None
443,Normal,NaN,None,NaN,999,999,high,No Target,None
444,Normal,NaN,None,NaN,999,999,high,No Target,None
445,Critical,1.1280000000000001,0.851,0.5090000000000001,999,1,high,Target Present,tone2
446,Normal,NaN,None,NaN,999,999,high,No Target,None
447,Normal,NaN,None,NaN,999,999,high,No Target,None
448,Normal,NaN,None,NaN,999,999,high,No Target,None
449,Critical,NaN,0.332,0.726,999,1,high,No Target,tone2
450,Normal,NaN,None,NaN,999,999,high,No Target,None
451,Normal,NaN,None,NaN,999,999,high,No Target,None
452,Normal,NaN,None,NaN,999,999,high,No Target,None
453,Normal,NaN,None,NaN,999,999,high,No Target,None
454,Critical,NaN,0.854,0.475,999,1,high,No Target,tone3
455,Normal,NaN,None,NaN,999,999,high,No Target,None
456,Normal,NaN,None,NaN,999,999,high,No Target,None
457,Normal,NaN,None,NaN,999,999,high,No Target,None
458,Normal,NaN,None,NaN,999,999,high,No Target,None
459,Critical,NaN,0.362,0.519,999,1,high,No Target,tone2
460,Normal,NaN,None,NaN,999,999,high,No Target,None
461,Normal,NaN,None,NaN,999,999,high,No Target,None
462,Critical,NaN,0.526,0.563,999,1,high,No Target,tone3
463,Normal,NaN,None,NaN,999,999,high,No Target,None
464,Normal,NaN,None,NaN,999,999,high,No Target,None
465,Normal,NaN,None,NaN,999,999,high,No Target,None
466,Normal,0.98,None,NaN,1,999,high,Target Present,None
467,Normal,NaN,None,NaN,999,999,high,No Target,None
468,Normal,NaN,None,NaN,999,999,high,No Target,None
469,Normal,NaN,None,NaN,999,999,high,No Target,None
470,Normal,1.1179999999999999,None,NaN,1,999,high,Target Absent,None
471,Normal,NaN,None,NaN,999,999,high,No Target,None
472,Normal,NaN,None,NaN,999,999,high,No Target,None
473,Critical,NaN,0.113,0.883,999,1,high,No Target,tone2
474,Normal,NaN,None,NaN,999,999,high,No Target,None
475,Normal,NaN,None,NaN,999,999,high,No Target,None
476,Normal,NaN,None,NaN,999,999,high,No Target,None
477,Normal,NaN,None,NaN,999,999,high,No Target,None
478,Normal,NaN,None,NaN,999,999,high,No Target,None
479,Normal,NaN,None,NaN,999,999,high,No Target,None
