,Image Name,Cat. 1,Cat. 2,Cat. 3,Cat. 4,Cat. 5,True Skill Rating,Load,Exemplar of,To be asked,Trial Type,Audio,RT to TO,RT VS,RT to TO,Sound Onset,Sound Hz,Trial N.,trial_n
189,2008_007704.jpg, chair, diningtable, bottle,,,20.03811988,low, bottle,,No Target,Critical,"[('space', 0.1700552636775683)]",Na,Na,0.426,tone3,0,0
22,2008_000339.jpg, bird,,,,,14.38243182,low, bird,,No Target,Normal,None,Na,Na,None,None,1,1
277,2009_003181.jpg, person,,,,,20.71653544,low, person,,No Target,Normal,None,Na,Na,None,None,2,2
23,2008_000398.jpg, person, bottle,,,,20.42379547,low, bottle,,No Target,Critical,"[('space', 0.5887409096039846)]",Na,Na,0.951,tone3,3,3
438,2011_001198.jpg, sofa, dog,,,,16.6984986,low, sofa,,No Target,Normal,None,Na,Na,None,None,4,4
7,2008_000119.jpg, person, horse,,,,19.18754607,low, horse,,No Target,Normal,None,Na,Na,None,None,5,5
108,2008_003846.jpg, car,,,,,18.10032217,low, car,,No Target,Normal,None,Na,Na,None,None,6,6
345,2010_001863.jpg, cat,,,,,16.82752057,low, cat,,No Target,Normal,None,Na,Na,None,None,7,7
14,2008_000193.jpg, car, person,,,,16.25909358,low, car,,No Target,Normal,None,Na,Na,None,None,8,8
291,2009_004016.jpg, dog,,,,,19.65229661,low, dog,,No Target,Normal,None,Na,Na,None,None,9,9
418,2011_000379.jpg, sofa, cat,,,,21.05425029,low, sofa,,No Target,Critical,"[('space', 0.20059910798136116)]",Na,Na,0.697,tone1,10,10
77,2008_002182.jpg, cat,,,,,16.26490692,low, cat,,No Target,Normal,None,Na,Na,None,None,11,11
430,2011_001005.jpg, pottedplant, sofa,,,,18.96772267,low, pottedplant,,No Target,Normal,None,Na,Na,None,None,12,12
274,2009_002998.jpg, sofa,,,,,20.95630729,low, sofa,,No Target,Normal,None,Na,Na,None,None,13,13
46,2008_000972.jpg, person, sofa,,,,20.70787778,low, person,,No Target,Normal,None,Na,Na,None,None,14,14
130,2008_004702.jpg, person, chair, dog,,,18.94630701,low, chair,,No Target,Critical,"[('space', 0.4867810789755822)]",Na,Na,0.94,tone4,15,15
31,2008_000533.jpg, bird,,,,,13.80945657,low, bird,,No Target,Normal,None,Na,Na,None,None,16,16
168,2008_006784.jpg, sofa,,,,,17.05590937,low, sofa,,No Target,Normal,None,Na,Na,None,None,17,17
257,2009_002123.jpg, pottedplant, person,,,,19.66447615,low, pottedplant,,No Target,Normal,None,Na,Na,None,None,18,18
64,2008_001694.jpg, pottedplant, sofa, chair,,,18.5118878,low, sofa,,No Target,Critical,"[('space', 0.9052175479846483)]",Na,Na,0.292,tone1,19,19
358,2010_002661.jpg, pottedplant,,,,,15.88057161,low, pottedplant,,No Target,Normal,None,Na,Na,None,None,20,20
2,2008_000037.jpg, aeroplane,,,,,12.091823,low, aeroplane,,No Target,Normal,None,Na,Na,None,None,21,21
45,2008_000952.jpg, car,,,,,19.759256,low, car, car,Target Present,Normal,None,"[('p', 2.075837308570044)]",-999,None,None,22,22
457,2011_001886.jpg, boat,,,,,19.6857523,low, boat,,No Target,Normal,None,Na,Na,None,None,23,23
389,2010_004425.jpg, sofa, cat,,,,18.28847734,low, sofa,,No Target,Normal,None,Na,Na,None,None,24,24
191,2008_007816.jpg, horse,,,,,21.01947615,low, horse, horse,Target Present,Critical,None,"[('p', 1.8840634540138126)]","['space', 1.3561339716525254]",0.865,tone1,25,25
123,2008_004490.jpg, chair, cat,,,,16.57851398,low, chair,,No Target,Normal,None,Na,Na,None,None,26,26
414,2010_006078.jpg, cat,,,,,13.15004464,low, cat,,No Target,Normal,None,Na,Na,None,None,27,27
6,2008_000112.jpg, bottle, cat,,,,21.25982976,low, bottle,,No Target,Normal,None,Na,Na,None,None,28,28
416,2011_000129.jpg, aeroplane,,,,,15.90618893,low, aeroplane,,No Target,Critical,"[('space', 0.4486122499247358)]",Na,Na,0.987,tone1,29,29
103,2008_003659.jpg, cat,,,,,15.63366674,low, cat,,No Target,Normal,None,Na,Na,None,None,30,30
116,2008_004208.jpg, person, chair,,,,21.15894772,low, person,,No Target,Normal,None,Na,Na,None,None,31,31
367,2010_003280.jpg, person, horse,,,,20.30683532,low, horse,,No Target,Normal,None,Na,Na,None,None,32,32
290,2009_003974.jpg, car,,,,,16.30622987,low, car,,No Target,Normal,None,Na,Na,None,None,33,33
166,2008_006546.jpg, dog,,,,,15.67179749,low, dog,,No Target,Normal,None,Na,Na,None,None,34,34
117,2008_004269.jpg, sofa, person,,,,20.98329806,low, sofa,,No Target,Critical,"[('space', 0.08493882336006209)]",Na,Na,0.609,tone1,35,35
365,2010_003255.jpg, bird,,,,,13.95929412,low, bird,,No Target,Normal,None,Na,Na,None,None,36,36
238,2009_001314.jpg, bird,,,,,8.549086134,low, bird,,No Target,Normal,None,Na,Na,None,None,37,37
38,2008_000734.jpg, person, sofa,,,,20.18533933,low, sofa, sofa,Target Present,Normal,None,"[('p', 2.1452114126450397)]",-999,None,None,38,38
448,2011_001613.jpg, person, boat,,,,17.51694148,low, boat,,No Target,Normal,None,Na,Na,None,None,39,39
368,2010_003287.jpg, tvmonitor, chair, person,,,20.15519305,low, chair,,No Target,Normal,None,Na,Na,None,None,40,40
329,2010_000846.jpg, dog,,,,,11.4893019,low, dog,,No Target,Normal,None,Na,Na,None,None,41,41
36,2008_000646.jpg, person,,,,,13.39574725,low, person,,No Target,Normal,None,Na,Na,None,None,42,42
479,2011_003098.jpg, dog,,,,,14.52660239,low, dog,,No Target,Normal,None,Na,Na,None,None,43,43
399,2010_005257.jpg, cat,,,,,20.04157457,low, cat,,No Target,Critical,"[('space', 0.7384768504953172)]",Na,Na,0.216,tone2,44,44
328,2010_000838.jpg, person, horse,,,,20.40572806,low, horse,,No Target,Normal,None,Na,Na,None,None,45,45
29,2008_000491.jpg, pottedplant,,,,,15.06948341,low, pottedplant,,No Target,Normal,None,Na,Na,None,None,46,46
264,2009_002521.jpg, bottle,,,,,20.83252155,low, bottle, boat,Target Absent,Normal,None,"[('p', 2.132811867435521)]",-999,None,None,47,47
113,2008_004171.jpg, pottedplant,,,,,20.58416257,low, pottedplant,,No Target,Normal,None,Na,Na,None,None,48,48
198,2008_008083.jpg, person, boat,,,,18.64245043,low, boat,,No Target,Normal,None,Na,Na,None,None,49,49
276,2009_003127.jpg, horse,,,,,19.10307284,low, horse, boat,Target Absent,Normal,None,"[('p', 2.106636887078821)]",-999,None,None,50,50
331,2010_001036.jpg, person, boat,,,,19.19481595,low, boat,,No Target,Normal,None,Na,Na,None,None,51,51
476,2011_002911.jpg, bottle, dog, diningtable,,,21.03464691,low, bottle,,No Target,Normal,None,Na,Na,None,None,52,52
94,2008_003045.jpg, cat,,,,,16.41703919,low, cat,,No Target,Normal,None,Na,Na,None,None,53,53
140,2008_005345.jpg, pottedplant,,,,,16.52047637,low, pottedplant, dog,Target Absent,Normal,None,"[('q', 2.1363471005952306)]",-999,None,None,54,54
152,2008_005748.jpg, dog,,,,,12.20210994,low, dog,,No Target,Normal,None,Na,Na,None,None,55,55
216,2009_000304.jpg, chair, cat,,,,18.18987643,low, chair,,No Target,Normal,None,Na,Na,None,None,56,56
445,2011_001591.jpg, person, boat,,,,17.69816713,low, boat,,No Target,Normal,None,Na,Na,None,None,57,57
322,2010_000295.jpg, aeroplane,,,,,18.64762782,low, aeroplane,,No Target,Normal,None,Na,Na,None,None,58,58
17,2008_000236.jpg, person,,,,,19.27672634,low, person,,No Target,Normal,None,Na,Na,None,None,59,59
382,2010_003943.jpg, cat,,,,,31.19357079,high, cat,,No Target,Normal,None,Na,Na,None,None,0,60
12,2008_000191.jpg, person, bicycle, boat,,,34.31905161,high, boat,,No Target,Normal,None,Na,Na,None,None,1,61
363,2010_003014.jpg, sofa, person,,,,31.45021986,high, person,,No Target,Critical,"[('space', 0.5841006309819932)]",Na,Na,0.843,tone4,2,62
219,2009_000466.jpg, cat,,,,,30.95401072,high, cat,,No Target,Normal,None,Na,Na,None,None,3,63
376,2010_003724.jpg, person, bird,,,,29.65738997,high, bird,,No Target,Normal,None,Na,Na,None,None,4,64
72,2008_002037.jpg, person, dog,,,,30.20203583,high, dog,,No Target,Normal,None,Na,Na,None,None,5,65
425,2011_000675.jpg, person, horse,,,,30.73068063,high, horse,,No Target,Normal,None,Na,Na,None,None,6,66
201,2008_008357.jpg, person, bicycle, car,,,32.10863486,high, car,,No Target,Critical,"[('space', 0.3583985165705599)]",Na,Na,0.888,tone3,7,67
87,2008_002482.jpg, person, boat,,,,28.94552801,high, boat,,No Target,Normal,None,Na,Na,None,None,8,68
161,2008_006298.jpg, sheep, person, horse,,,32.38547762,high, horse,,No Target,Normal,None,Na,Na,None,None,9,69
465,2011_002358.jpg, person, chair, diningtable, bottle,,32.26151027,high, bottle, bird,Target Absent,Normal,None,"[('q', 2.0666240347954954)]",-999,None,None,10,70
284,2009_003646.jpg, tvmonitor, person, bicycle, sofa,,38.21890595,high, sofa,,No Target,Normal,None,Na,Na,None,None,11,71
81,2008_002350.jpg, bird,,,,,29.81492031,high, bird,,No Target,Normal,None,Na,Na,None,None,12,72
439,2011_001221.jpg, pottedplant, person, chair, diningtable, boat,35.38363354,high, chair, chair,Target Present,Normal,None,"[('p', 2.2111677445327587)]",-999,None,None,13,73
293,2009_004125.jpg, person, boat,,,,31.87043919,high, boat,,No Target,Normal,None,Na,Na,None,None,14,74
330,2010_000942.jpg, pottedplant, person, chair,,,34.89137182,high, pottedplant,,No Target,Normal,None,Na,Na,None,None,15,75
451,2011_001799.jpg, car, motorbike,,,,30.34900042,high, car,,No Target,Normal,None,Na,Na,None,None,16,76
435,2011_001116.jpg, person, cat,,,,29.77854418,high, cat,,No Target,Critical,"[('space', 0.8277012887629098)]",Na,Na,0.889,tone1,17,77
147,2008_005563.jpg, person, dog,,,,29.07873274,high, dog,,No Target,Normal,None,Na,Na,None,None,18,78
244,2009_001695.jpg, bicycle, bottle,,,,35.23814958,high, bottle,,No Target,Normal,None,Na,Na,None,None,19,79
364,2010_003232.jpg, cat,,,,,30.66707338,high, cat,,No Target,Normal,None,Na,Na,None,None,20,80
436,2011_001139.jpg, chair, bird, diningtable,,,29.36175572,high, bird,,No Target,Normal,None,Na,Na,None,None,21,81
105,2008_003755.jpg, car, dog, person,,,29.76355213,high, dog,,No Target,Normal,None,Na,Na,None,None,22,82
233,2009_000995.jpg, sofa, person,,,,31.46367723,high, sofa,,No Target,Normal,None,Na,Na,None,None,23,83
405,2010_005595.jpg, horse,,,,,29.69412347,high, horse,,No Target,Normal,None,Na,Na,None,None,24,84
218,2009_000449.jpg, sofa, dog, person,,,29.28309157,high, sofa,,No Target,Normal,None,Na,Na,None,None,25,85
119,2008_004318.jpg, person, sofa,,,,29.75735845,high, sofa, aeroplane,Target Absent,Normal,None,"[('q', 1.9963507270604168)]",-999,None,None,26,86
25,2008_000414.jpg, boat,,,,,35.94715,high, boat,,No Target,Normal,None,Na,Na,None,None,27,87
298,2009_004283.jpg, pottedplant, sofa,,,,29.04248887,high, pottedplant,,No Target,Normal,None,Na,Na,None,None,28,88
404,2010_005572.jpg, person, motorbike,,,,31.07685831,high, person,,No Target,Normal,None,Na,Na,None,None,29,89
129,2008_004690.jpg, bird,,,,,30.51535276,high, bird,,No Target,Normal,None,Na,Na,None,None,30,90
146,2008_005519.jpg, pottedplant, person, chair, diningtable,,31.52068761,high, chair,,No Target,Normal,None,Na,Na,None,None,31,91
28,2008_000424.jpg, person,,,,,29.85785785,high, person, person,Target Present,Normal,None,"[('p', 1.986689276953257)]",-999,None,None,32,92
310,2009_004841.jpg, cat,,,,,28.68743792,high, cat,,No Target,Normal,None,Na,Na,None,None,33,93
247,2009_001751.jpg, bird,,,,,29.97187988,high, bird,,No Target,Normal,None,Na,Na,None,None,34,94
459,2011_002005.jpg, tvmonitor, chair, person,,,30.09308124,high, chair,,No Target,Normal,None,Na,Na,None,None,35,95
412,2010_006015.jpg, chair, bottle,,,,33.56815114,high, bottle,,No Target,Normal,None,Na,Na,None,None,36,96
229,2009_000926.jpg, pottedplant, sofa,,,,35.07912895,high, sofa,,No Target,Critical,"[('space', 0.9151310260049286)]",Na,Na,0.342,tone2,37,97
324,2010_000536.jpg, cat,,,,,31.54166437,high, cat,,No Target,Normal,None,Na,Na,None,None,38,98
332,2010_001099.jpg, tvmonitor, dog,,,,31.58802401,high, dog,,No Target,Normal,None,Na,Na,None,None,39,99
90,2008_002773.jpg, aeroplane, boat,,,,29.28734944,high, aeroplane, chair,Target Absent,Normal,None,"[('q', 2.101068894851778)]",-999,None,None,40,100
32,2008_000541.jpg, person, sofa,,,,29.63901024,high, sofa,,No Target,Normal,None,Na,Na,None,None,41,101
373,2010_003520.jpg, sofa, chair, diningtable,,,35.49231202,high, sofa,,No Target,Normal,None,Na,Na,None,None,42,102
450,2011_001769.jpg, person, chair, bottle,,,30.2142954,high, chair,,No Target,Critical,"[('space', 0.18645361375001812)]",Na,Na,0.639,tone1,43,103
288,2009_003951.jpg, person, train,,,,28.89001495,high, person,,No Target,Normal,None,Na,Na,None,None,44,104
283,2009_003351.jpg, pottedplant, person, chair, motorbike, boat,31.5804899,high, boat,,No Target,Normal,None,Na,Na,None,None,45,105
37,2008_000697.jpg, bird,,,,,32.06509586,high, bird, bird,Target Present,Normal,None,"[('q', 1.9911339773534564)]",-999,None,None,46,106
68,2008_001929.jpg, person,,,,,38.90283281,high, person,,No Target,Normal,None,Na,Na,None,None,47,107
467,2011_002542.jpg, person, diningtable, bottle,,,40.5533995,high, bottle,,No Target,Normal,None,Na,Na,None,None,48,108
177,2008_007143.jpg, boat,,,,,33.49461342,high, boat,,No Target,Critical,"[('space', 0.08928316875517339)]",Na,Na,0.503,tone1,49,109
234,2009_001107.jpg, sofa,,,,,30.15956649,high, sofa,,No Target,Normal,None,Na,Na,None,None,50,110
432,2011_001031.jpg, sofa, chair,,,,29.49317582,high, sofa,,No Target,Normal,None,Na,Na,None,None,51,111
359,2010_002742.jpg, person, bottle, pottedplant, tvmonitor, chair,31.67638571,high, bottle,,No Target,Normal,None,Na,Na,None,None,52,112
346,2010_001992.jpg, bird,,,,,28.99760488,high, bird,,No Target,Critical,"[('space', 0.8276134781335713)]",Na,Na,0.07,tone3,53,113
26,2008_000418.jpg, person, chair, diningtable,,,28.87770855,high, chair,,No Target,Normal,None,Na,Na,None,None,54,114
49,2008_001155.jpg, chair, diningtable,,,,33.69412787,high, chair,,No Target,Normal,None,Na,Na,None,None,55,115
279,2009_003265.jpg, person, chair, bottle, diningtable, tvmonitor,39.0005066,high, chair,,No Target,Critical,"[('space', 0.1317490166920834)]",Na,Na,0.59,tone4,56,116
74,2008_002079.jpg, person, bottle, diningtable,,,33.02206681,high, bottle,,No Target,Normal,None,Na,Na,None,None,57,117
171,2008_006870.jpg, person, dog,,,,30.6573416,high, dog,,No Target,Normal,None,Na,Na,None,None,58,118
164,2008_006461.jpg, bird,,,,,31.18243026,high, bird,,No Target,Critical,None,Na,Na,0.492,tone4,59,119
80,2008_002199.jpg, car, bottle, person,,,36.80648002,high, car,,No Target,Normal,None,Na,Na,None,None,0,120
462,2011_002098.jpg, dog, bottle,,,,41.9971447,high, dog,,No Target,Critical,"[('space', 0.1446888253558427)]",Na,Na,0.492,tone2,1,121
93,2008_002966.jpg, person, boat,,,,31.41385755,high, boat,,No Target,Normal,None,Na,Na,None,None,2,122
40,2008_000798.jpg, bird,,,,,29.59459789,high, bird,,No Target,Normal,None,Na,Na,None,None,3,123
0,2008_000032.jpg, bus, person,,,,30.61203595,high, person,,No Target,Normal,None,Na,Na,None,None,4,124
417,2011_000278.jpg, person, boat, car,,,35.33464598,high, car, pottedplant,Target Absent,Normal,None,"[('q', 2.1473356886344845)]",-999,None,None,5,125
135,2008_005178.jpg, person, dog,,,,29.07343452,high, dog,,No Target,Normal,None,Na,Na,None,None,6,126
390,2010_004542.jpg, person, horse,,,,33.85482115,high, horse,,No Target,Normal,None,Na,Na,None,None,7,127
67,2008_001920.jpg, tvmonitor, person,,,,34.98802186,high, person,,No Target,Normal,None,Na,Na,None,None,8,128
66,2008_001862.jpg, pottedplant, person, chair, dog, bottle,31.05804957,high, dog,,No Target,Normal,None,Na,Na,None,None,9,129
394,2010_004950.jpg, boat,,,,,29.96161285,high, boat, aeroplane,Target Absent,Normal,None,"[('q', 1.9808875031785647)]",-999,None,None,10,130
136,2008_005197.jpg, person, dog,,,,33.64296693,high, dog,,No Target,Normal,None,Na,Na,None,None,11,131
469,2011_002555.jpg, person, horse,,,,29.26546246,high, horse,,No Target,Normal,None,Na,Na,None,None,12,132
273,2009_002850.jpg, person, bottle,,,,41.29008548,high, bottle,,No Target,Normal,None,Na,Na,None,None,13,133
255,2009_002001.jpg, person, aeroplane,,,,34.54414482,high, aeroplane,,No Target,Normal,None,Na,Na,None,None,14,134
428,2011_000828.jpg, sofa, bottle, person,,,29.47971697,high, sofa,,No Target,Normal,None,Na,Na,None,None,15,135
70,2008_002026.jpg, pottedplant, sofa, chair,,,35.71139853,high, pottedplant,,No Target,Critical,"[('space', 0.13705842371928156)]",Na,Na,0.482,tone3,16,136
254,2009_001976.jpg, chair,,,,,33.76608333,high, chair,,No Target,Normal,None,Na,Na,None,None,17,137
240,2009_001345.jpg, person, aeroplane,,,,28.99541661,high, aeroplane,,No Target,Normal,None,Na,Na,None,None,18,138
217,2009_000405.jpg, bus, person, car,,,29.16002617,high, car,,No Target,Normal,None,Na,Na,None,None,19,139
182,2008_007423.jpg, bird,,,,,33.64739801,high, bird,,No Target,Normal,None,Na,Na,None,None,20,140
259,2009_002182.jpg, person, horse,,,,29.8661241,high, horse,,No Target,Critical,"[('space', 0.4715006038404681)]",Na,Na,0.936,tone2,21,141
13,2008_000192.jpg, bird,,,,,29.17631148,high, bird,,No Target,Normal,None,Na,Na,None,None,22,142
380,2010_003864.jpg, pottedplant, sofa, chair, diningtable, tvmonitor,31.00753792,high, pottedplant,,No Target,Normal,None,Na,Na,None,None,23,143
42,2008_000829.jpg, person, dog,,,,30.55610287,high, dog, dog,Target Present,Normal,None,"[('p', 2.0037624574206347)]",-999,None,None,24,144
424,2011_000628.jpg, person, horse,,,,31.31059992,high, horse,,No Target,Normal,None,Na,Na,None,None,25,145
79,2008_002195.jpg, person, aeroplane,,,,30.48036176,high, aeroplane,,No Target,Normal,None,Na,Na,None,None,26,146
63,2008_001673.jpg, person, chair, bird,,,29.63012123,high, bird, sofa,Target Absent,Normal,None,"[('p', 2.1350766974528597)]",-999,None,None,27,147
371,2010_003419.jpg, bird,,,,,28.6670652,high, bird,,No Target,Normal,None,Na,Na,None,None,28,148
356,2010_002472.jpg, cat,,,,,32.66066395,high, cat,,No Target,Normal,None,Na,Na,None,None,29,149
51,2008_001210.jpg, cat,,,,,29.24697617,high, cat,,No Target,Normal,None,Na,Na,None,None,30,150
226,2009_000848.jpg, tvmonitor, bottle,,,,30.12607109,high, bottle,,No Target,Normal,None,Na,Na,None,None,31,151
18,2008_000251.jpg, car, aeroplane,,,,35.87217941,high, aeroplane,,No Target,Critical,"[('space', 0.11151465354123502)]",Na,Na,0.503,tone4,32,152
1,2008_000036.jpg, person, bicycle, boat,,,33.11883424,high, boat,,No Target,Normal,None,Na,Na,None,None,33,153
475,2011_002879.jpg, sofa, tvmonitor,,,,29.90273721,high, sofa,,No Target,Normal,None,Na,Na,None,None,34,154
121,2008_004441.jpg, person, bicycle, car,,,30.19059303,high, person,,No Target,Critical,"[('space', 0.5938615807972383)]",Na,Na,0.987,tone3,35,155
65,2008_001784.jpg, pottedplant, person,,,,29.50643156,high, pottedplant,,No Target,Normal,None,Na,Na,None,None,36,156
464,2011_002239.jpg, person, dog,,,,31.31965347,high, dog,,No Target,Normal,None,Na,Na,None,None,37,157
427,2011_000824.jpg, cat,,,,,31.77985882,high, cat, cat,Target Present,Normal,None,"[('p', 1.9030248481267336)]",-999,None,None,38,158
162,2008_006303.jpg, chair,,,,,28.72363665,high, chair,,No Target,Normal,None,Na,Na,None,None,39,159
27,2008_000421.jpg, person, bottle, sofa,,,28.87632024,high, bottle,,No Target,Normal,None,Na,Na,None,None,40,160
411,2010_005894.jpg, chair,,,,,29.02795836,high, chair,,No Target,Normal,None,Na,Na,None,None,41,161
295,2009_004179.jpg, person, chair, dog, car,,31.41085347,high, dog,,No Target,Normal,None,Na,Na,None,None,42,162
128,2008_004646.jpg, person, aeroplane,,,,32.01497355,high, aeroplane,,No Target,Normal,None,Na,Na,None,None,43,163
73,2008_002039.jpg, person,,,,,29.72640207,high, person,,No Target,Normal,None,Na,Na,None,None,44,164
377,2010_003729.jpg, pottedplant, car, chair, bicycle, person,30.13324411,high, pottedplant, pottedplant,Target Present,Normal,None,"[('q', 2.046407062711296)]",-999,None,None,45,165
339,2010_001586.jpg, person, train, sofa,,,31.65115644,high, sofa,,No Target,Normal,None,Na,Na,None,None,46,166
471,2011_002631.jpg, cat,,,,,29.37680987,high, cat,,No Target,Normal,None,Na,Na,None,None,47,167
204,2008_008490.jpg, bird,,,,,29.18141014,high, bird,,No Target,Normal,None,Na,Na,None,None,48,168
306,2009_004674.jpg, sofa, chair, person,,,33.18559025,high, chair,,No Target,Normal,None,Na,Na,None,None,49,169
185,2008_007527.jpg, tvmonitor, chair,,,,32.38481414,high, chair,,No Target,Critical,"[('space', 0.9803945662324622)]",Na,Na,0.293,tone2,50,170
52,2008_001278.jpg, person, horse,,,,32.48053186,high, horse,,No Target,Normal,None,Na,Na,None,None,51,171
44,2008_000916.jpg, pottedplant, person, train,,,29.32349307,high, pottedplant,,No Target,Normal,None,Na,Na,None,None,52,172
220,2009_000488.jpg, pottedplant, tvmonitor, cat,,,31.6704472,high, pottedplant,,No Target,Critical,"[('space', 0.2054717426535717)]",Na,Na,0.673,tone3,53,173
188,2008_007629.jpg, aeroplane,,,,,31.1423085,high, aeroplane,,No Target,Normal,None,Na,Na,None,None,54,174
441,2011_001382.jpg, pottedplant, person, diningtable, bottle,,28.93951331,high, pottedplant,,No Target,Normal,None,Na,Na,None,None,55,175
455,2011_001862.jpg, pottedplant, sofa, chair, dog, diningtable,32.89256213,high, chair,,No Target,Critical,"[('space', 0.3838807052670745)]",Na,Na,0.79,tone3,56,176
148,2008_005600.jpg, person, cat,,,,30.22651638,high, cat,,No Target,Normal,None,Na,Na,None,None,57,177
196,2008_008029.jpg, person, sofa,,,,31.11980531,high, sofa,,No Target,Normal,None,Na,Na,None,None,58,178
190,2008_007745.jpg, person, dog,,,,32.95939022,high, dog,,No Target,Critical,None,Na,Na,0.951,tone4,59,179
249,2009_001782.jpg, car,,,,,18.87415623,low, car,,No Target,Critical,"[('space', 0.8963634995152461)]",Na,Na,0.216,tone1,0,180
319,2010_000090.jpg, chair, dog,,,,13.83671015,low, dog,,No Target,Normal,None,Na,Na,None,None,1,181
256,2009_002120.jpg, car,,,,,19.86595411,low, car,,No Target,Normal,None,Na,Na,None,None,2,182
124,2008_004522.jpg, person,,,,,20.54328862,low, person,,No Target,Normal,None,Na,Na,None,None,3,183
137,2008_005214.jpg, pottedplant,,,,,21.2176699,low, pottedplant, pottedplant,Target Present,Normal,None,"[('p', 2.297378111433318)]",-999,None,None,4,184
340,2010_001594.jpg, boat,,,,,19.04897462,low, boat,,No Target,Normal,None,Na,Na,None,None,5,185
387,2010_004307.jpg, person, bicycle,,,,21.2386983,low, person,,No Target,Normal,None,Na,Na,None,None,6,186
236,2009_001299.jpg, person, chair,,,,19.77080876,low, chair,,No Target,Normal,None,Na,Na,None,None,7,187
386,2010_004231.jpg, chair, diningtable,,,,15.83070894,low, chair,,No Target,Normal,None,Na,Na,None,None,8,188
48,2008_001040.jpg, boat,,,,,20.2100437,low, boat,,No Target,Normal,None,Na,Na,None,None,9,189
312,2009_004888.jpg, person, boat,,,,16.65124246,low, boat,,No Target,Critical,"[('space', 0.4411617460400521)]",Na,Na,0.873,tone3,10,190
163,2008_006452.jpg, dog,,,,,16.13745812,low, dog,,No Target,Normal,None,Na,Na,None,None,11,191
442,2011_001432.jpg, bird,,,,,19.73559235,low, bird,,No Target,Normal,None,Na,Na,None,None,12,192
357,2010_002498.jpg, person, boat,,,,17.99774847,low, boat,,No Target,Critical,"[('space', 0.5405998720470961)]",Na,Na,0.987,tone2,13,193
280,2009_003309.jpg, aeroplane,,,,,19.09599574,low, aeroplane,,No Target,Normal,None,Na,Na,None,None,14,194
318,2010_000073.jpg, car,,,,,18.42947513,low, car,,No Target,Normal,None,Na,Na,None,None,15,195
35,2008_000645.jpg, person,,,,,10.96294835,low, person,,No Target,Normal,None,Na,Na,None,None,16,196
421,2011_000481.jpg, aeroplane,,,,,15.75949207,low, aeroplane,,No Target,Critical,"[('space', 0.927235208185266)]",Na,Na,0.412,tone2,17,197
62,2008_001617.jpg, person, chair,,,,20.22413954,low, chair,,No Target,Normal,None,Na,Na,None,None,18,198
366,2010_003259.jpg, aeroplane,,,,,18.73147009,low, aeroplane,,No Target,Normal,None,Na,Na,None,None,19,199
11,2008_000163.jpg, car,,,,,18.70849772,low, car, boat,Target Absent,Normal,None,"[('q', 2.0336368882190072)]",-999,None,None,20,200
224,2009_000716.jpg, cat,,,,,20.53735354,low, cat,,No Target,Normal,None,Na,Na,None,None,21,201
403,2010_005437.jpg, car,,,,,20.48716673,low, car,,No Target,Normal,None,Na,Na,None,None,22,202
115,2008_004175.jpg, horse,,,,,18.09561576,low, horse,,No Target,Normal,None,Na,Na,None,None,23,203
402,2010_005409.jpg, car, bottle, person,,,19.55873743,low, bottle,,No Target,Normal,None,Na,Na,None,None,24,204
4,2008_000066.jpg, dog,,,,,14.84037085,low, dog, dog,Target Present,Normal,None,"[('p', 1.8243912841680867)]",-999,None,None,25,205
327,2010_000805.jpg, dog, bottle,,,,18.86070334,low, bottle,,No Target,Normal,None,Na,Na,None,None,26,206
131,2008_004771.jpg, aeroplane,,,,,18.79588987,low, aeroplane,,No Target,Normal,None,Na,Na,None,None,27,207
354,2010_002436.jpg, bird,,,,,20.65943839,low, bird,,No Target,Normal,None,Na,Na,None,None,28,208
248,2009_001774.jpg, sofa, dog,,,,16.14256262,low, sofa,,No Target,Critical,"[('space', 0.43951444142749096)]",Na,Na,0.904,tone3,29,209
250,2009_001810.jpg, person, bottle,,,,19.61526987,low, bottle,,No Target,Normal,None,Na,Na,None,None,30,210
228,2009_000919.jpg, boat,,,,,19.2535196,low, boat,,No Target,Normal,None,Na,Na,None,None,31,211
321,2010_000151.jpg, bird,,,,,20.12814087,low, bird,,No Target,Normal,None,Na,Na,None,None,32,212
156,2008_006072.jpg, bottle,,,,,18.25990094,low, bottle,,No Target,Normal,None,Na,Na,None,None,33,213
139,2008_005309.jpg, cat,,,,,20.22587911,low, cat, bird,Target Absent,Normal,None,"[('q', 1.9837034304300687)]",-999,None,None,34,214
241,2009_001406.jpg, person, boat,,,,19.90161689,low, boat,,No Target,Normal,None,Na,Na,None,None,35,215
134,2008_004911.jpg, horse,,,,,19.1389758,low, horse,,No Target,Normal,None,Na,Na,None,None,36,216
107,2008_003838.jpg, pottedplant, chair, dog,,,17.39857058,low, pottedplant,,No Target,Critical,"[('space', 0.9799763253413403)]",Na,Na,0.522,tone4,37,217
54,2008_001320.jpg, person, chair, diningtable,,,20.00529885,low, chair,,No Target,Normal,None,Na,Na,None,None,38,218
127,2008_004624.jpg, horse,,,,,13.8796341,low, horse,,No Target,Normal,None,Na,Na,None,None,39,219
86,2008_002471.jpg, bird,,,,,20.79976233,low, bird,,No Target,Critical,"[('space', 0.3803836754332224)]",Na,Na,0.719,tone3,40,220
151,2008_005735.jpg, cat,,,,,13.68599365,low, cat,,No Target,Normal,None,Na,Na,None,None,41,221
313,2009_004984.jpg, bicycle, bottle,,,,18.89379801,low, bottle,,No Target,Normal,None,Na,Na,None,None,42,222
214,2009_000189.jpg, sofa, dog,,,,20.93405968,low, sofa,,No Target,Normal,None,Na,Na,None,None,43,223
311,2009_004874.jpg, chair,,,,,19.81187434,low, chair,,No Target,Normal,None,Na,Na,None,None,44,224
118,2008_004270.jpg, person, sofa,,,,19.24403588,low, person,,No Target,Normal,None,Na,Na,None,None,45,225
308,2009_004737.jpg, chair,,,,,16.98544233,low, chair,,No Target,Critical,"[('space', 0.6891634840067127)]",Na,Na,0.748,tone4,46,226
413,2010_006076.jpg, dog,,,,,20.39097313,low, dog,,No Target,Normal,None,Na,Na,None,None,47,227
323,2010_000447.jpg, chair,,,,,18.00822423,low, chair,,No Target,Normal,None,Na,Na,None,None,48,228
57,2008_001395.jpg, person,,,,,19.97982463,low, person,,No Target,Normal,None,Na,Na,None,None,49,229
401,2010_005391.jpg, dog,,,,,18.6088037,low, dog, person,Target Absent,Normal,None,"[('q', 2.1154889398521846)]",-999,None,None,50,230
16,2008_000197.jpg, aeroplane,,,,,16.57609723,low, aeroplane,,No Target,Normal,None,Na,Na,None,None,51,231
326,2010_000750.jpg, pottedplant,,,,,11.90221234,low, pottedplant,,No Target,Normal,None,Na,Na,None,None,52,232
316,2009_005308.jpg, bottle,,,,,21.11630175,low, bottle,,No Target,Normal,None,Na,Na,None,None,53,233
388,2010_004311.jpg, dog,,,,,16.89110622,low, dog,,No Target,Normal,None,Na,Na,None,None,54,234
381,2010_003911.jpg, boat,,,,,20.08430254,low, boat, boat,Target Present,Normal,None,"[('p', 2.1907383733587267)]",-999,None,None,55,235
272,2009_002820.jpg, tvmonitor, bird,,,,15.42778804,low, bird,,No Target,Normal,None,Na,Na,None,None,56,236
144,2008_005467.jpg, dog,,,,,20.01703476,low, dog,,No Target,Normal,None,Na,Na,None,None,57,237
385,2010_004223.jpg, person, chair,,,,16.60680658,low, chair,,No Target,Normal,None,Na,Na,None,None,58,238
353,2010_002393.jpg, boat,,,,,20.13141109,low, boat,,No Target,Critical,None,Na,Na,0.843,tone2,59,239
336,2010_001434.jpg, sofa, chair,,,,31.26054,high, chair,,No Target,Critical,"[('space', 0.45974167709209723)]",Na,Na,0.799,tone1,0,240
71,2008_002032.jpg, person, chair, diningtable,,,32.01182729,high, person,,No Target,Normal,None,Na,Na,None,None,1,241
227,2009_000906.jpg, car,,,,,29.05478148,high, car,,No Target,Normal,None,Na,Na,None,None,2,242
212,2009_000157.jpg, tvmonitor, chair, person,,,30.89333834,high, chair,,No Target,Normal,None,Na,Na,None,None,3,243
207,2008_008607.jpg, aeroplane,,,,,32.02068991,high, aeroplane,,No Target,Normal,None,Na,Na,None,None,4,244
150,2008_005702.jpg, horse,,,,,29.28123751,high, horse,,No Target,Critical,"[('space', 0.8201652550451399)]",Na,Na,0.151,tone2,5,245
195,2008_007970.jpg, person, aeroplane,,,,30.07304163,high, aeroplane,,No Target,Normal,None,Na,Na,None,None,6,246
242,2009_001462.jpg, chair,,,,,32.44930357,high, chair,,No Target,Normal,None,Na,Na,None,None,7,247
202,2008_008368.jpg, person, bicycle, car,,,31.8102479,high, car,,No Target,Normal,None,Na,Na,None,None,8,248
181,2008_007388.jpg, pottedplant, chair, diningtable,,,28.76635784,high, chair,,No Target,Critical,"[('space', 0.06643757975598419)]",Na,Na,0.478,tone3,9,249
408,2010_005669.jpg, dog,,,,,33.96067753,high, dog,,No Target,Normal,None,Na,Na,None,None,10,250
215,2009_000247.jpg, person, diningtable, bottle,,,30.91062411,high, bottle,,No Target,Normal,None,Na,Na,None,None,11,251
100,2008_003429.jpg, person, motorbike,,,,31.41933888,high, person,,No Target,Normal,None,Na,Na,None,None,12,252
19,2008_000262.jpg, boat,,,,,38.409555,high, boat,,No Target,Normal,None,Na,Na,None,None,13,253
252,2009_001888.jpg, pottedplant, sofa,,,,28.81434209,high, pottedplant,,No Target,Critical,"[('space', 0.6351590911945095)]",Na,Na,0.022,tone3,14,254
15,2008_000196.jpg, pottedplant, bicycle, bottle, cat,,35.35378443,high, pottedplant,,No Target,Normal,None,Na,Na,None,None,15,255
192,2008_007913.jpg, person, cat,,,,32.26510908,high, cat,,No Target,Normal,None,Na,Na,None,None,16,256
30,2008_000495.jpg, tvmonitor, chair, bottle,,,32.17976917,high, bottle,,No Target,Normal,None,Na,Na,None,None,17,257
187,2008_007613.jpg, cat,,,,,31.07255302,high, cat, person,Target Absent,Normal,None,"[('q', 1.9393487986480977)]",-999,None,None,18,258
172,2008_006903.jpg, boat,,,,,31.79381279,high, boat,,No Target,Normal,None,Na,Na,None,None,19,259
170,2008_006864.jpg, pottedplant, sofa, person,,,29.72325552,high, sofa,,No Target,Normal,None,Na,Na,None,None,20,260
179,2008_007281.jpg, sofa, person, bottle, pottedplant, tvmonitor,36.88958526,high, bottle,,No Target,Critical,"[('space', 0.1434064480372399)]",Na,Na,0.639,tone4,21,261
98,2008_003283.jpg, person, horse,,,,30.08804593,high, horse,,No Target,Normal,None,Na,Na,None,None,22,262
410,2010_005718.jpg, car, aeroplane,,,,32.22452077,high, aeroplane,,No Target,Normal,None,Na,Na,None,None,23,263
199,2008_008210.jpg, person, bicycle, car,,,31.5779064,high, car,,No Target,Normal,None,Na,Na,None,None,24,264
101,2008_003448.jpg, person, chair,,,,30.01632433,high, chair,,No Target,Normal,None,Na,Na,None,None,25,265
355,2010_002462.jpg, pottedplant, person, bottle, diningtable,,35.49954365,high, bottle,,No Target,Normal,None,Na,Na,None,None,26,266
91,2008_002835.jpg, person, horse,,,,31.84266058,high, horse, horse,Target Present,Normal,None,"[('p', 1.7900216903663022)]",-999,None,None,27,267
415,2011_000009.jpg, tvmonitor, chair, bottle, person,,35.25028289,high, chair,,No Target,Normal,None,Na,Na,None,None,28,268
309,2009_004794.jpg, pottedplant, person, bottle, diningtable,,36.66558282,high, bottle,,No Target,Normal,None,Na,Na,None,None,29,269
222,2009_000547.jpg, car, horse, person,,,32.99612117,high, horse,,No Target,Critical,"[('space', 0.38410336793731403)]",Na,Na,0.673,tone3,30,270
266,2009_002571.jpg, pottedplant, sofa, chair, diningtable,,28.96846506,high, sofa,,No Target,Normal,None,Na,Na,None,None,31,271
110,2008_004100.jpg, car, aeroplane, person,,,31.81214007,high, aeroplane,,No Target,Normal,None,Na,Na,None,None,32,272
262,2009_002414.jpg, bird,,,,,29.74278668,high, bird,,No Target,Normal,None,Na,Na,None,None,33,273
34,2008_000619.jpg, car, cat,,,,33.46218479,high, cat,,No Target,Normal,None,Na,Na,None,None,34,274
200,2008_008341.jpg, pottedplant, person,,,,30.93117424,high, pottedplant,,No Target,Normal,None,Na,Na,None,None,35,275
282,2009_003338.jpg, person, horse,,,,30.13089803,high, horse,,No Target,Critical,"[('space', 0.9749280694086337)]",Na,Na,0.342,tone2,36,276
474,2011_002814.jpg, sofa, bottle, pottedplant, tvmonitor, chair,33.93777562,high, bottle,,No Target,Normal,None,Na,Na,None,None,37,277
393,2010_004844.jpg, pottedplant, person, motorbike, car, bus,30.65978031,high, pottedplant,,No Target,Normal,None,Na,Na,None,None,38,278
145,2008_005472.jpg, person, car,,,,28.83974175,high, car,,No Target,Normal,None,Na,Na,None,None,39,279
300,2009_004414.jpg, aeroplane,,,,,35.97296008,high, aeroplane,,No Target,Normal,None,Na,Na,None,None,40,280
398,2010_005239.jpg, tvmonitor, cat,,,,33.31955031,high, cat,,No Target,Normal,None,Na,Na,None,None,41,281
55,2008_001329.jpg, car, person,,,,34.57644103,high, car, car,Target Present,Normal,None,"[('p', 1.9396182176260481)]",-999,None,None,42,282
153,2008_005750.jpg, aeroplane,,,,,29.20186946,high, aeroplane,,No Target,Normal,None,Na,Na,None,None,43,283
338,2010_001533.jpg, tvmonitor, chair, person,,,33.46727324,high, person,,No Target,Normal,None,Na,Na,None,None,44,284
178,2008_007250.jpg, bird,,,,,31.89212551,high, bird,,No Target,Normal,None,Na,Na,None,None,45,285
194,2008_007949.jpg, chair, diningtable,,,,38.0925597,high, chair, sofa,Target Absent,Normal,None,"[('p', 2.047287449808209)]",-999,None,None,46,286
420,2011_000434.jpg, sofa, person, tvmonitor,,,31.14925642,high, person,,No Target,Normal,None,Na,Na,None,None,47,287
344,2010_001856.jpg, person, horse,,,,35.66913246,high, horse,,No Target,Normal,None,Na,Na,None,None,48,288
395,2010_005106.jpg, person, aeroplane,,,,30.24293721,high, aeroplane,,No Target,Critical,"[('space', 0.3668137969880263)]",Na,Na,0.734,tone1,49,289
440,2011_001283.jpg, sofa, person,,,,32.35902155,high, sofa,,No Target,Normal,None,Na,Na,None,None,50,290
47,2008_000987.jpg, person,,,,,31.64764727,high, person,,No Target,Normal,None,Na,Na,None,None,51,291
230,2009_000934.jpg, person, horse,,,,33.98425573,high, horse,,No Target,Critical,"[('space', 0.4811757387205944)]",Na,Na,0.873,tone1,52,292
348,2010_002127.jpg, person, bottle, car,,,34.31316104,high, car,,No Target,Normal,None,Na,Na,None,None,53,293
53,2008_001312.jpg, person, bottle,,,,31.29356592,high, bottle,,No Target,Normal,None,Na,Na,None,None,54,294
317,2010_000020.jpg, person, dog,,,,30.51924458,high, dog, car,Target Absent,Normal,None,"[('q', 1.9174554418077605)]",-999,None,None,55,295
61,2008_001580.jpg, boat,,,,,29.28810503,high, boat,,No Target,Normal,None,Na,Na,None,None,56,296
175,2008_007057.jpg, dog,,,,,40.77312128,high, dog,,No Target,Normal,None,Na,Na,None,None,57,297
197,2008_008080.jpg, pottedplant, bus, bicycle,,,33.24041884,high, pottedplant,,No Target,Normal,None,Na,Na,None,None,58,298
239,2009_001321.jpg, car, aeroplane,,,,37.93755166,high, aeroplane, aeroplane,Target Present,Normal,None,"[('q', 1.8981889912838597)]",-999,None,None,59,299
225,2009_000742.jpg, bottle,,,,,16.39468003,low, bottle,,No Target,Critical,"[('space', 0.16209699767478014)]",Na,Na,0.533,tone4,0,300
245,2009_001723.jpg, boat,,,,,19.26433768,low, boat,,No Target,Normal,None,Na,Na,None,None,1,301
422,2011_000514.jpg, pottedplant,,,,,18.03153745,low, pottedplant,,No Target,Normal,None,Na,Na,None,None,2,302
263,2009_002415.jpg, chair, diningtable,,,,19.90451448,low, chair, chair,Target Present,Normal,None,"[('p', 1.8222561743987171)]",-999,None,None,3,303
237,2009_001312.jpg, aeroplane,,,,,19.88575045,low, aeroplane,,No Target,Normal,None,Na,Na,None,None,4,304
89,2008_002704.jpg, car,,,,,19.43993938,low, car,,No Target,Normal,None,Na,Na,None,None,5,305
343,2010_001836.jpg, aeroplane,,,,,18.21242681,low, aeroplane, aeroplane,Target Present,Normal,None,"[('p', 1.8645549540588036)]",-999,None,None,6,306
149,2008_005673.jpg, cat,,,,,18.6869051,low, cat,,No Target,Normal,None,Na,Na,None,None,7,307
370,2010_003329.jpg, bottle,,,,,20.96577532,low, bottle,,No Target,Normal,None,Na,Na,None,None,8,308
184,2008_007511.jpg, sofa,,,,,16.41609668,low, sofa,,No Target,Normal,None,Na,Na,None,None,9,309
3,2008_000059.jpg, person, dog,,,,19.02871536,low, person,,No Target,Critical,None,Na,Na,0.403,tone1,10,310
246,2009_001746.jpg, sofa,,,,,16.30002293,low, sofa,,No Target,Normal,None,Na,Na,None,None,11,311
304,2009_004620.jpg, aeroplane,,,,,17.41279879,low, aeroplane,,No Target,Normal,None,Na,Na,None,None,12,312
320,2010_000132.jpg, pottedplant,,,,,19.90627663,low, pottedplant,,No Target,Critical,"[('space', 0.4159384276426863)]",Na,Na,0.503,tone2,13,313
58,2008_001439.jpg, chair,,,,,19.87713164,low, chair,,No Target,Normal,None,Na,Na,None,None,14,314
477,2011_003023.jpg, sheep, person,,,,14.02332689,low, person,,No Target,Normal,None,Na,Na,None,None,15,315
314,2009_005036.jpg, car, aeroplane,,,,16.811685,low, aeroplane,,No Target,Normal,None,Na,Na,None,None,16,316
221,2009_000525.jpg, person,,,,,17.83437809,low, person, cat,Target Absent,Critical,"[('space', 0.865975889710171)]","[('q', 1.9699664837089585)]",-999,0.108,tone3,17,317
342,2010_001829.jpg, horse,,,,,19.23440134,low, horse,,No Target,Normal,None,Na,Na,None,None,18,318
39,2008_000777.jpg, person,,,,,20.3258581,low, person,,No Target,Normal,None,Na,Na,None,None,19,319
106,2008_003767.jpg, pottedplant,,,,,21.25588755,low, pottedplant,,No Target,Normal,None,Na,Na,None,None,20,320
205,2008_008533.jpg, horse,,,,,19.2079564,low, horse,,No Target,Normal,None,Na,Na,None,None,21,321
120,2008_004414.jpg, car,,,,,20.49470892,low, car,,No Target,Normal,None,Na,Na,None,None,22,322
303,2009_004594.jpg, car,,,,,19.03017815,low, car,,No Target,Critical,"[('space', 0.33682988800137537)]",Na,Na,0.719,tone4,23,323
112,2008_004166.jpg, horse,,,,,20.56778279,low, horse,,No Target,Normal,None,Na,Na,None,None,24,324
258,2009_002137.jpg, bottle,,,,,18.60351893,low, bottle,,No Target,Normal,None,Na,Na,None,None,25,325
231,2009_000937.jpg, sofa,,,,,20.50651053,low, sofa, horse,Target Absent,Critical,"[('space', 0.7494702852254704)]","[('q', 1.8854427651458536)]",-999,0.064,tone4,26,326
437,2011_001173.jpg, sofa, cat,,,,20.43410382,low, cat,,No Target,Normal,None,Na,Na,None,None,27,327
253,2009_001894.jpg, cat,,,,,19.10769655,low, cat,,No Target,Normal,None,Na,Na,None,None,28,328
210,2009_000087.jpg, sofa,,,,,19.8923897,low, sofa,,No Target,Normal,None,Na,Na,None,None,29,329
289,2009_003962.jpg, bird,,,,,16.63718849,low, bird,,No Target,Normal,None,Na,Na,None,None,30,330
292,2009_004083.jpg, cat,,,,,15.02423943,low, cat,,No Target,Normal,None,Na,Na,None,None,31,331
133,2008_004907.jpg, boat,,,,,16.58037434,low, boat,,No Target,Normal,None,Na,Na,None,None,32,332
10,2008_000151.jpg, aeroplane,,,,,8.171244741,low, aeroplane, horse,Target Absent,Normal,None,"[('q', 2.174725477741049)]",-999,None,None,33,333
155,2008_006034.jpg, aeroplane,,,,,20.01272221,low, aeroplane,,No Target,Normal,None,Na,Na,None,None,34,334
235,2009_001279.jpg, cat,,,,,17.88110457,low, cat,,No Target,Normal,None,Na,Na,None,None,35,335
125,2008_004607.jpg, bottle,,,,,20.4657412,low, bottle,,No Target,Critical,"[('space', 0.14514840566698695)]",Na,Na,0.497,tone2,36,336
173,2008_006921.jpg, car,,,,,18.41450385,low, car,,No Target,Normal,None,Na,Na,None,None,37,337
138,2008_005251.jpg, person,,,,,18.43977255,low, person,,No Target,Normal,None,Na,Na,None,None,38,338
458,2011_001959.jpg, bird,,,,,9.576867709,low, bird, bird,Target Present,Normal,None,"[('p', 2.0294319564554826)]",-999,None,None,39,339
268,2009_002697.jpg, horse,,,,,19.78900607,low, horse,,No Target,Normal,None,Na,Na,None,None,40,340
261,2009_002374.jpg, chair,,,,,20.13855957,low, chair,,No Target,Normal,None,Na,Na,None,None,41,341
275,2009_003084.jpg, boat,,,,,20.07471587,low, boat,,No Target,Normal,None,Na,Na,None,None,42,342
334,2010_001370.jpg, dog,,,,,17.80742804,low, dog,,No Target,Normal,None,Na,Na,None,None,43,343
169,2008_006837.jpg, chair, dog, diningtable,,,18.2062639,low, chair,,No Target,Critical,"[('space', 0.6426284116423631)]",Na,Na,0.967,tone3,44,344
352,2010_002379.jpg, pottedplant,,,,,19.89572012,low, pottedplant,,No Target,Normal,None,Na,Na,None,None,45,345
82,2008_002357.jpg, person,,,,,15.28084218,low, person,,No Target,Normal,None,Na,Na,None,None,46,346
143,2008_005465.jpg, bird,,,,,16.67271324,low, bird,,No Target,Normal,None,Na,Na,None,None,47,347
461,2011_002050.jpg, boat,,,,,17.33155808,low, boat,,No Target,Critical,"[('space', 0.2511124580478281)]",Na,Na,0.673,tone3,48,348
378,2010_003746.jpg, car, dog, person,,,21.02015921,low, car,,No Target,Normal,None,Na,Na,None,None,49,349
453,2011_001825.jpg, horse,,,,,20.50284734,low, horse,,No Target,Normal,None,Na,Na,None,None,50,350
351,2010_002283.jpg, horse,,,,,18.05782528,low, horse,,No Target,Normal,None,Na,Na,None,None,51,351
85,2008_002442.jpg, person, chair, dog, car,,19.9398263,low, car,,No Target,Normal,None,Na,Na,None,None,52,352
109,2008_004036.jpg, person, motorbike,,,,19.44615669,low, person,,No Target,Normal,None,Na,Na,None,None,53,353
297,2009_004263.jpg, pottedplant, chair, diningtable,,,21.05350372,low, pottedplant,,No Target,Normal,None,Na,Na,None,None,54,354
154,2008_005831.jpg, dog,,,,,15.13791528,low, dog,,No Target,Normal,None,Na,Na,None,None,55,355
443,2011_001543.jpg, chair, dog,,,,14.96914197,low, chair,,No Target,Normal,None,Na,Na,None,None,56,356
361,2010_002956.jpg, bottle,,,,,16.59887486,low, bottle,,No Target,Normal,None,Na,Na,None,None,57,357
454,2011_001834.jpg, chair,,,,,13.72743874,low, chair,,No Target,Normal,None,Na,Na,None,None,58,358
21,2008_000287.jpg, pottedplant,,,,,19.54965645,low, pottedplant,,No Target,Normal,None,Na,Na,None,None,59,359
99,2008_003288.jpg, person,,,,,16.331918,low, person,,No Target,Normal,None,Na,Na,None,None,0,360
447,2011_001611.jpg, pottedplant,,,,,20.3935266,low, pottedplant,,No Target,Normal,None,Na,Na,None,None,1,361
203,2008_008467.jpg, aeroplane,,,,,11.63773974,low, aeroplane,,No Target,Normal,None,Na,Na,None,None,2,362
372,2010_003453.jpg, car,,,,,17.7316961,low, car,,No Target,Critical,"[('space', 0.05234140772972751)]",Na,Na,0.462,tone1,3,363
397,2010_005217.jpg, bird,,,,,20.82173163,low, bird,,No Target,Normal,None,Na,Na,None,None,4,364
157,2008_006092.jpg, car,,,,,16.4886037,low, car,,No Target,Normal,None,Na,Na,None,None,5,365
142,2008_005444.jpg, person, sofa,,,,14.90489029,low, sofa,,No Target,Critical,"[('space', 0.3276439837745784)]",Na,Na,0.734,tone4,6,366
208,2008_008714.jpg, sheep, dog,,,,20.07817344,low, dog,,No Target,Normal,None,Na,Na,None,None,7,367
375,2010_003592.jpg, aeroplane,,,,,11.64066234,low, aeroplane,,No Target,Normal,None,Na,Na,None,None,8,368
243,2009_001470.jpg, sofa, dog,,,,19.18883419,low, dog,,No Target,Normal,None,Na,Na,None,None,9,369
97,2008_003203.jpg, pottedplant, person,,,,20.51511763,low, pottedplant,,No Target,Normal,None,Na,Na,None,None,10,370
392,2010_004791.jpg, aeroplane,,,,,20.12076124,low, aeroplane,,No Target,Critical,"[('space', 0.8160966008163086)]",Na,Na,0.229,tone2,11,371
400,2010_005376.jpg, horse,,,,,20.34348153,low, horse,,No Target,Normal,None,Na,Na,None,None,12,372
232,2009_000939.jpg, tvmonitor, chair, sofa,,,21.02083881,low, sofa,,No Target,Normal,None,Na,Na,None,None,13,373
468,2011_002548.jpg, bird,,,,,17.81068988,low, bird, boat,Target Absent,Normal,None,"[('q', 2.72241092637978)]",-999,None,None,14,374
265,2009_002567.jpg, bottle,,,,,19.93577352,low, bottle,,No Target,Normal,None,Na,Na,None,None,15,375
383,2010_004145.jpg, horse,,,,,18.59045643,low, horse,,No Target,Normal,None,Na,Na,None,None,16,376
335,2010_001417.jpg, cat,,,,,14.06671444,low, cat,,No Target,Critical,None,Na,Na,0.873,tone3,17,377
362,2010_002990.jpg, person, cat,,,,19.84957835,low, cat,,No Target,Normal,None,Na,Na,None,None,18,378
267,2009_002594.jpg, bottle,,,,,19.09623736,low, bottle,,No Target,Normal,None,Na,Na,None,None,19,379
213,2009_000169.jpg, person, horse, car,,,20.93459986,low, car,,No Target,Critical,"[('space', 0.5453350887855777)]",Na,Na,0.967,tone1,20,380
333,2010_001192.jpg, sofa, person,,,,20.92452836,low, sofa,,No Target,Normal,None,Na,Na,None,None,21,381
470,2011_002558.jpg, person, boat,,,,16.14615478,low, boat,,No Target,Normal,None,Na,Na,None,None,22,382
302,2009_004582.jpg, sofa, person,,,,20.38268488,low, sofa,,No Target,Critical,"[('space', 0.21192781966237817)]",Na,Na,0.609,tone2,23,383
223,2009_000647.jpg, dog,,,,,18.05503275,low, dog,,No Target,Normal,None,Na,Na,None,None,24,384
95,2008_003135.jpg, pottedplant,,,,,20.73071186,low, pottedplant,,No Target,Normal,None,Na,Na,None,None,25,385
460,2011_002038.jpg, chair,,,,,19.16151497,low, chair,,No Target,Normal,None,Na,Na,None,None,26,386
444,2011_001568.jpg, cat,,,,,17.32743513,low, cat,,No Target,Normal,None,Na,Na,None,None,27,387
337,2010_001441.jpg, bird,,,,,12.28655099,low, bird,,No Target,Critical,"[('space', 0.40256013602629537)]",Na,Na,0.889,tone2,28,388
269,2009_002704.jpg, cat,,,,,14.70154771,low, cat,,No Target,Normal,None,Na,Na,None,None,29,389
301,2009_004483.jpg, dog,,,,,18.01939275,low, dog,,No Target,Normal,None,Na,Na,None,None,30,390
271,2009_002749.jpg, bottle,,,,,20.96364308,low, bottle, bottle,Target Present,Normal,None,"[('p', 2.079451514277025)]",-999,None,None,31,391
426,2011_000734.jpg, bird,,,,,18.23108888,low, bird,,No Target,Normal,None,Na,Na,None,None,32,392
299,2009_004334.jpg, bird,,,,,18.83558265,low, bird,,No Target,Normal,None,Na,Na,None,None,33,393
111,2008_004138.jpg, aeroplane,,,,,18.76412105,low, aeroplane,,No Target,Normal,None,Na,Na,None,None,34,394
384,2010_004175.jpg, cat,,,,,10.23663576,low, cat, cat,Target Present,Normal,None,"[('p', 1.942853811267014)]",-999,None,None,35,395
76,2008_002145.jpg, person,,,,,18.87955753,low, person,,No Target,Normal,None,Na,Na,None,None,36,396
24,2008_000400.jpg, bird,,,,,19.61954485,low, bird,,No Target,Normal,None,Na,Na,None,None,37,397
307,2009_004713.jpg, bird,,,,,20.01239363,low, bird,,No Target,Critical,"[('space', 0.09892922349172295)]",Na,Na,0.568,tone2,38,398
88,2008_002504.jpg, boat,,,,,20.47066395,low, boat,,No Target,Normal,None,Na,Na,None,None,39,399
174,2008_007012.jpg, dog,,,,,9.061016516,low, dog,,No Target,Normal,None,Na,Na,None,None,40,400
141,2008_005443.jpg, aeroplane,,,,,17.39728912,low, aeroplane,,No Target,Normal,"[('space', 0.7568911387670596)]",Na,Na,None,None,41,401
84,2008_002379.jpg, pottedplant, chair, diningtable,,,17.13857605,low, pottedplant,,No Target,Critical,None,Na,Na,0.025,tone3,42,402
9,2008_000141.jpg, person, horse,,,,19.2853679,low, horse,,No Target,Normal,None,Na,Na,None,None,43,403
466,2011_002453.jpg, pottedplant,,,,,19.24976137,low, pottedplant,,No Target,Normal,None,Na,Na,None,None,44,404
305,2009_004639.jpg, cat,,,,,20.83776855,low, cat,,No Target,Normal,None,Na,Na,None,None,45,405
449,2011_001753.jpg, aeroplane,,,,,11.34641314,low, aeroplane,,No Target,Normal,None,Na,Na,None,None,46,406
251,2009_001837.jpg, horse,,,,,19.27378311,low, horse,,No Target,Normal,None,Na,Na,None,None,47,407
341,2010_001731.jpg, chair,,,,,9.955368401,low, chair, car,Target Absent,Normal,None,"[('q', 2.0259571643782692)]",-999,None,None,48,408
159,2008_006276.jpg, sofa,,,,,12.39022978,low, sofa,,No Target,Normal,None,Na,Na,None,None,49,409
473,2011_002766.jpg, sofa, dog,,,,19.88562666,low, sofa,,No Target,Normal,None,Na,Na,None,None,50,410
114,2008_004174.jpg, dog,,,,,16.3635983,low, dog,,No Target,Normal,None,Na,Na,None,None,51,411
347,2010_001995.jpg, bird,,,,,18.3319521,low, bird,,No Target,Normal,None,Na,Na,None,None,52,412
325,2010_000628.jpg, car,,,,,19.89235212,low, car,,No Target,Normal,None,Na,Na,None,None,53,413
391,2010_004662.jpg, boat,,,,,21.19862042,low, boat, aeroplane,Target Absent,Normal,"[('space', 0.2709451160753815)]","[('q', 2.270907197848828)]",-999,None,None,54,414
83,2008_002372.jpg, bottle,,,,,14.59333688,low, bottle,,No Target,Normal,None,Na,Na,None,None,55,415
92,2008_002866.jpg, person, horse,,,,18.60877848,low, horse,,No Target,Normal,None,Na,Na,None,None,56,416
270,2009_002711.jpg, car, person,,,,17.85630566,low, car,,No Target,Normal,None,Na,Na,None,None,57,417
69,2008_001934.jpg, horse,,,,,19.66113924,low, horse,,No Target,Normal,None,Na,Na,None,None,58,418
193,2008_007923.jpg, person, bottle,,,,19.05734477,low, person, person,Target Present,Normal,None,"[('p', 1.8924379652107746)]",-999,None,None,59,419
56,2008_001333.jpg, sofa, chair, bottle, person,,29.05176679,high, sofa,,No Target,Critical,"[('space', 0.14763276226040034)]",Na,Na,0.522,tone4,0,420
180,2008_007378.jpg, chair, dog, diningtable,,,29.61144034,high, dog,,No Target,Normal,None,Na,Na,None,None,1,421
374,2010_003579.jpg, chair, cat,,,,29.79862915,high, cat,,No Target,Normal,None,Na,Na,None,None,2,422
50,2008_001182.jpg, person, dog,,,,32.23604822,high, dog,,No Target,Critical,"[('space', 0.4222676353965653)]",Na,Na,0.88,tone3,3,423
167,2008_006767.jpg, boat,,,,,32.60330947,high, boat,,No Target,Normal,None,Na,Na,None,None,4,424
419,2011_000427.jpg, sofa, diningtable, person,,,40.50710337,high, sofa,,No Target,Normal,None,Na,Na,None,None,5,425
160,2008_006295.jpg, pottedplant, tvmonitor, diningtable, bottle, person,33.94013437,high, bottle, bottle,Target Present,Normal,None,"[('p', 2.0665088546193147)]",-999,None,None,6,426
294,2009_004154.jpg, person, chair, diningtable, bottle,,29.62291428,high, person,,No Target,Normal,None,Na,Na,None,None,7,427
126,2008_004614.jpg, car, bus, person,,,31.30513577,high, car,,No Target,Normal,None,Na,Na,None,None,8,428
431,2011_001025.jpg, pottedplant, person, bicycle, car,,33.36715275,high, car,,No Target,Normal,None,Na,Na,None,None,9,429
396,2010_005170.jpg, person, chair, diningtable, sofa,,30.91646677,high, person,,No Target,Normal,None,Na,Na,None,None,10,430
104,2008_003689.jpg, pottedplant, person, chair,,,30.60605981,high, pottedplant,,No Target,Normal,None,Na,Na,None,None,11,431
75,2008_002084.jpg, pottedplant, person, dog,,,30.00737433,high, pottedplant, horse,Target Absent,Normal,None,"[('q', 2.165128175010068)]",-999,None,None,12,432
132,2008_004892.jpg, person, horse,,,,31.04635209,high, horse,,No Target,Normal,None,Na,Na,None,None,13,433
206,2008_008591.jpg, person, bicycle, bottle,,,30.12805384,high, bottle,,No Target,Normal,None,Na,Na,None,None,14,434
20,2008_000270.jpg, person, dog, sofa,,,29.93561839,high, sofa, sofa,Target Present,Normal,None,"[('p', 1.9377730539972617)]",-999,None,None,15,435
286,2009_003725.jpg, person, horse, car,,,30.12263629,high, car,,No Target,Normal,None,Na,Na,None,None,16,436
186,2008_007534.jpg, car, dog,,,,31.13697328,high, car,,No Target,Normal,None,Na,Na,None,None,17,437
211,2009_000120.jpg, boat,,,,,30.80608913,high, boat, boat,Target Present,Critical,None,"[('p', 2.535802503629384)]","['space', 2.2638666669708982]",0.955,tone4,18,438
8,2008_000140.jpg, boat,,,,,41.70023312,high, boat,,No Target,Normal,None,Na,Na,None,None,19,439
158,2008_006121.jpg, person, boat,,,,30.38418727,high, boat,,No Target,Normal,None,Na,Na,None,None,20,440
452,2011_001800.jpg, person, aeroplane,,,,30.95304329,high, aeroplane,,No Target,Critical,"[('space', 0.7579234838694902)]",Na,Na,0.07,tone4,21,441
41,2008_000803.jpg, person, bicycle, motorbike,,,31.27613146,high, person,,No Target,Normal,None,Na,Na,None,None,22,442
285,2009_003705.jpg, person, aeroplane,,,,29.54730611,high, aeroplane,,No Target,Normal,None,Na,Na,None,None,23,443
102,2008_003575.jpg, person, aeroplane,,,,31.07062434,high, aeroplane,,No Target,Normal,None,Na,Na,None,None,24,444
260,2009_002306.jpg, boat,,,,,30.0652664,high, boat,,No Target,Critical,None,Na,Na,0.275,tone2,25,445
165,2008_006481.jpg, bird, boat,,,,29.3142336,high, bird,,No Target,Normal,None,Na,Na,None,None,26,446
409,2010_005705.jpg, boat,,,,,30.07547412,high, boat,,No Target,Normal,None,Na,Na,None,None,27,447
315,2009_005239.jpg, person, boat,,,,33.51757226,high, boat,,No Target,Normal,None,Na,Na,None,None,28,448
281,2009_003323.jpg, person, horse,,,,28.63959648,high, horse, cat,Target Absent,Normal,None,"[('q', 1.8952450543802115)]",-999,None,None,29,449
60,2008_001467.jpg, pottedplant, person, chair,,,30.03319736,high, pottedplant,,No Target,Normal,None,Na,Na,None,None,30,450
59,2008_001464.jpg, person, horse,,,,30.7567144,high, horse,,No Target,Normal,None,Na,Na,None,None,31,451
456,2011_001880.jpg, aeroplane,,,,,32.20276402,high, aeroplane,,No Target,Normal,None,Na,Na,None,None,32,452
434,2011_001097.jpg, boat,,,,,33.0359363,high, boat,,No Target,Normal,None,Na,Na,None,None,33,453
423,2011_000548.jpg, bird, cow,,,,30.961221,high, bird,,No Target,Normal,None,Na,Na,None,None,34,454
78,2008_002185.jpg, person,,,,,34.64372837,high, person, bird,Target Absent,Normal,None,"[('q', 1.905598155748521)]",-999,None,None,35,455
176,2008_007108.jpg, pottedplant, dog,,,,29.85183435,high, dog,,No Target,Normal,None,Na,Na,None,None,36,456
5,2008_000093.jpg, tvmonitor, chair, sofa,,,29.822033,high, sofa,,No Target,Normal,None,Na,Na,None,None,37,457
429,2011_001001.jpg, person, bird, boat,,,31.91340974,high, bird,,No Target,Critical,"[('space', 0.33490575182440807)]",Na,Na,0.724,tone3,38,458
349,2010_002183.jpg, person, horse,,,,34.55757717,high, horse,,No Target,Normal,None,Na,Na,None,None,39,459
122,2008_004445.jpg, pottedplant, chair,,,,30.34541588,high, pottedplant,,No Target,Normal,None,Na,Na,None,None,40,460
296,2009_004199.jpg, bottle,,,,,34.55732937,high, bottle,,No Target,Normal,None,Na,Na,None,None,41,461
446,2011_001605.jpg, pottedplant, person, motorbike,,,34.41600543,high, pottedplant,,No Target,Normal,None,Na,Na,None,None,42,462
472,2011_002641.jpg, person, chair, bottle,,,33.38111538,high, bottle,,No Target,Critical,"[('space', 0.3501828057660532)]",Na,Na,0.673,tone3,43,463
360,2010_002789.jpg, sofa, cat,,,,33.20892925,high, cat,,No Target,Normal,None,Na,Na,None,None,44,464
407,2010_005608.jpg, bird,,,,,29.2726546,high, bird,,No Target,Normal,None,Na,Na,None,None,45,465
278,2009_003198.jpg, pottedplant, chair, diningtable,,,29.96856146,high, pottedplant,,No Target,Normal,None,Na,Na,None,None,46,466
96,2008_003180.jpg, dog,,,,,31.53785713,high, dog,,No Target,Normal,None,Na,Na,None,None,47,467
478,2011_003086.jpg, bus, car, person,,,29.14351571,high, car,,No Target,Normal,None,Na,Na,None,None,48,468
43,2008_000880.jpg, car, horse, person,,,34.97663775,high, car,,No Target,Normal,None,Na,Na,None,None,49,469
406,2010_005606.jpg, person, sofa, cat,,,29.51418979,high, cat,,No Target,Critical,"[('space', 0.3133171662939276)]",Na,Na,0.639,tone4,50,470
433,2011_001056.jpg, person,,,,,31.21400965,high, person,,No Target,Normal,None,Na,Na,None,None,51,471
350,2010_002278.jpg, person, cat,,,,29.86799404,high, cat,,No Target,Normal,None,Na,Na,None,None,52,472
379,2010_003861.jpg, pottedplant, person, chair, sofa, cat,29.7271296,high, cat,,No Target,Critical,"[('space', 0.9335039748566487)]",Na,Na,0.272,tone2,53,473
463,2011_002193.jpg, person, aeroplane,,,,30.18288572,high, aeroplane,,No Target,Normal,None,Na,Na,None,None,54,474
183,2008_007488.jpg, bus, motorbike, car, person,,31.08966391,high, car,,No Target,Normal,None,Na,Na,None,None,55,475
209,2009_000021.jpg, car, person,,,,29.00835902,high, car,,No Target,Normal,None,Na,Na,None,None,56,476
33,2008_000564.jpg, pottedplant, person,,,,31.19071287,high, person,,No Target,Normal,None,Na,Na,None,None,57,477
369,2010_003297.jpg, person, horse,,,,31.96963432,high, horse,,No Target,Normal,None,Na,Na,None,None,58,478
287,2009_003801.jpg, car,,,,,29.67521889,high, car,,No Target,Normal,None,Na,Na,None,None,59,479
