,Audio,RT_VS,Sound_Onset,RT_TO,Acc_VS,Acc_DT,Load,Trial_Type,Sound_Hz
0,Normal,NaN,None,NaN,999,999,low,No Target,None
1,Normal,NaN,None,NaN,999,999,low,No Target,None
2,Normal,NaN,None,NaN,999,999,low,No Target,None
3,Normal,NaN,None,NaN,999,999,low,No Target,None
4,Normal,NaN,None,NaN,999,999,low,No Target,None
5,Normal,0.683,None,NaN,1,999,low,Target Absent,None
6,Normal,NaN,None,NaN,999,999,low,No Target,None
7,Normal,NaN,None,NaN,999,999,low,No Target,None
8,Critical,NaN,0.414,0.502,999,1,low,No Target,tone2
9,Normal,NaN,None,NaN,999,999,low,No Target,None
10,Normal,NaN,None,NaN,999,999,low,No Target,None
11,Normal,NaN,None,NaN,999,999,low,No Target,None
12,Normal,0.8680000000000001,None,NaN,1,999,low,Target Absent,None
13,Normal,NaN,None,NaN,999,999,low,No Target,None
14,Normal,NaN,None,NaN,999,999,low,No Target,None
15,Normal,NaN,None,NaN,999,999,low,No Target,None
16,Normal,NaN,None,NaN,999,999,low,No Target,None
17,Normal,NaN,None,NaN,999,999,low,No Target,None
18,Critical,NaN,0.784,0.45399999999999996,999,1,low,No Target,tone3
19,Normal,NaN,None,NaN,999,999,low,No Target,None
20,Normal,NaN,None,NaN,999,999,low,No Target,None
21,Normal,NaN,None,NaN,999,999,low,No Target,None
22,Normal,0.6319999999999999,None,NaN,1,999,low,Target Present,None
23,Normal,NaN,None,NaN,999,999,low,No Target,None
24,Normal,NaN,None,NaN,999,999,low,No Target,None
25,Normal,NaN,None,NaN,999,999,low,No Target,None
26,Critical,NaN,0.153,0.495,999,1,low,No Target,tone1
27,Normal,NaN,None,NaN,999,999,low,No Target,None
28,Normal,NaN,None,NaN,999,999,low,No Target,None
29,Normal,NaN,None,NaN,999,999,low,No Target,None
30,Normal,NaN,None,NaN,999,999,low,No Target,None
31,Critical,NaN,0.152,0.46299999999999997,999,1,low,No Target,tone2
32,Normal,NaN,None,NaN,999,999,low,No Target,None
33,Normal,NaN,None,NaN,999,999,low,No Target,None
34,Critical,NaN,0.345,0.48,999,1,low,No Target,tone1
35,Normal,NaN,None,NaN,999,999,low,No Target,None
36,Normal,NaN,None,NaN,999,999,low,No Target,None
37,Critical,NaN,0.746,NaN,999,0,low,No Target,tone4
38,Normal,NaN,None,NaN,999,999,low,No Target,None
39,Normal,NaN,None,NaN,999,999,low,No Target,None
40,Normal,0.742,None,NaN,1,999,low,Target Absent,None
41,Normal,NaN,None,NaN,999,999,low,No Target,None
42,Normal,NaN,None,NaN,999,999,low,No Target,None
43,Normal,NaN,None,NaN,999,999,low,No Target,None
44,Critical,NaN,0.12,NaN,999,0,low,No Target,tone4
45,Normal,NaN,None,NaN,999,999,low,No Target,None
46,Normal,NaN,None,NaN,999,999,low,No Target,None
47,Critical,NaN,0.724,0.46199999999999997,999,1,low,No Target,tone3
48,Normal,NaN,None,NaN,999,999,low,No Target,None
49,Normal,NaN,None,NaN,999,999,low,No Target,None
50,Normal,NaN,None,NaN,999,999,low,No Target,None
51,Normal,NaN,None,NaN,999,999,low,No Target,None
52,Critical,NaN,0.347,0.503,999,1,low,No Target,tone2
53,Normal,NaN,None,NaN,999,999,low,No Target,None
54,Normal,NaN,None,NaN,999,999,low,No Target,None
55,Normal,0.558,None,NaN,1,999,low,Target Present,None
56,Normal,NaN,None,NaN,999,999,low,No Target,None
57,Normal,NaN,None,NaN,999,999,low,No Target,None
58,Normal,NaN,None,NaN,999,999,low,No Target,None
59,Normal,0.601,None,NaN,1,999,low,Target Present,None
60,Normal,NaN,None,NaN,999,999,high,No Target,None
61,Critical,0.6859999999999999,0.231,0.559,999,1,high,Target Present,tone1
62,Normal,NaN,None,NaN,999,999,high,No Target,None
63,Normal,NaN,None,NaN,999,999,high,No Target,None
64,Critical,NaN,0.19,0.5680000000000001,999,1,high,No Target,tone1
65,Normal,NaN,None,NaN,999,999,high,No Target,None
66,Normal,NaN,None,NaN,999,999,high,No Target,None
67,Critical,NaN,0.662,0.608,999,1,high,No Target,tone3
68,Normal,NaN,None,NaN,999,999,high,No Target,None
69,Normal,NaN,None,NaN,999,999,high,No Target,None
70,Normal,NaN,None,NaN,999,999,high,No Target,None
71,Normal,NaN,None,NaN,999,999,high,No Target,None
72,Normal,0.7989999999999999,None,NaN,1,999,high,Target Present,None
73,Normal,NaN,None,NaN,999,999,high,No Target,None
74,Normal,NaN,None,NaN,999,999,high,No Target,None
75,Normal,NaN,None,NaN,999,999,high,No Target,None
76,Normal,0.7482708333333333,None,NaN,1,999,high,Target Absent,None
77,Normal,NaN,None,NaN,999,999,high,No Target,None
78,Normal,NaN,None,NaN,999,999,high,No Target,None
79,Normal,NaN,None,NaN,999,999,high,No Target,None
80,Normal,0.764,None,NaN,0,999,high,Target Absent,None
81,Normal,NaN,None,NaN,999,999,high,No Target,None
82,Normal,NaN,None,NaN,999,999,high,No Target,None
83,Normal,NaN,None,NaN,999,999,high,No Target,None
84,Normal,NaN,None,NaN,999,999,high,No Target,None
85,Normal,0.637,None,NaN,1,999,high,Target Present,None
86,Normal,NaN,None,NaN,999,999,high,No Target,None
87,Normal,NaN,None,NaN,999,999,high,No Target,None
88,Normal,NaN,None,NaN,999,999,high,No Target,None
89,Normal,NaN,None,NaN,999,999,high,No Target,None
90,Normal,NaN,None,NaN,999,999,high,No Target,None
91,Critical,0.7689999999999999,0.969,NaN,999,0,high,Target Absent,tone3
92,Normal,NaN,None,NaN,999,999,high,No Target,None
93,Normal,NaN,None,NaN,999,999,high,No Target,None
94,Normal,NaN,None,NaN,999,999,high,No Target,None
95,Critical,NaN,0.408,0.5640000000000001,999,1,high,No Target,tone1
96,Normal,NaN,None,NaN,999,999,high,No Target,None
97,Normal,NaN,None,NaN,999,999,high,No Target,None
98,Critical,NaN,0.527,0.4149999999999999,999,1,high,No Target,tone3
99,Normal,NaN,None,NaN,999,999,high,No Target,None
100,Normal,NaN,None,NaN,999,999,high,No Target,None
101,Critical,NaN,0.674,0.42899999999999994,999,1,high,No Target,tone1
102,Normal,NaN,None,NaN,999,999,high,No Target,None
103,Normal,NaN,None,NaN,999,999,high,No Target,None
104,Normal,NaN,None,NaN,999,999,high,No Target,None
105,Critical,NaN,0.951,0.4960000000000001,999,1,high,No Target,tone2
106,Normal,NaN,None,NaN,999,999,high,No Target,None
107,Normal,NaN,None,0.876,666,666,high,No Target,None
108,Critical,NaN,0.42,NaN,999,0,high,No Target,tone2
109,Normal,NaN,None,NaN,999,999,high,No Target,None
110,Normal,NaN,None,NaN,999,999,high,No Target,None
111,Normal,NaN,None,NaN,999,999,high,No Target,None
112,Normal,NaN,None,NaN,999,999,high,No Target,None
113,Normal,NaN,None,NaN,999,999,high,No Target,None
114,Normal,NaN,None,NaN,999,999,high,No Target,None
115,Normal,NaN,None,NaN,999,999,high,No Target,None
116,Normal,NaN,None,NaN,999,999,high,No Target,None
117,Normal,NaN,None,NaN,999,999,high,No Target,None
118,Normal,NaN,None,NaN,999,999,high,No Target,None
119,Normal,NaN,None,NaN,999,999,high,No Target,None
120,Critical,NaN,0.537,NaN,999,0,high,No Target,tone4
121,Normal,NaN,None,NaN,999,999,high,No Target,None
122,Normal,NaN,None,NaN,999,999,high,No Target,None
123,Critical,NaN,0.274,0.48,999,1,high,No Target,tone2
124,Normal,NaN,None,NaN,999,999,high,No Target,None
125,Normal,NaN,None,NaN,999,999,high,No Target,None
126,Normal,NaN,None,NaN,999,999,high,No Target,None
127,Critical,0.6739999999999999,0.219,0.479,999,1,high,Target Present,tone1
128,Normal,NaN,None,NaN,999,999,high,No Target,None
129,Normal,NaN,None,NaN,999,999,high,No Target,None
130,Critical,0.738,0.561,0.553,999,1,high,Target Absent,tone1
131,Normal,NaN,None,NaN,999,999,high,No Target,None
132,Normal,NaN,None,NaN,999,999,high,No Target,None
133,Normal,0.833,None,NaN,1,999,high,Target Present,None
134,Normal,NaN,None,NaN,999,999,high,No Target,None
135,Normal,NaN,None,NaN,999,999,high,No Target,None
136,Normal,NaN,None,NaN,999,999,high,No Target,None
137,Normal,NaN,None,NaN,999,999,high,No Target,None
138,Normal,NaN,None,NaN,999,999,high,No Target,None
139,Normal,NaN,None,NaN,999,999,high,No Target,None
140,Normal,NaN,None,NaN,999,999,high,No Target,None
141,Normal,NaN,None,NaN,999,999,high,No Target,None
142,Normal,0.815,None,NaN,1,999,high,Target Absent,None
143,Normal,NaN,None,NaN,999,999,high,No Target,None
144,Normal,NaN,None,NaN,999,999,high,No Target,None
145,Normal,NaN,None,NaN,999,999,high,No Target,None
146,Normal,NaN,None,NaN,999,999,high,No Target,None
147,Normal,NaN,None,NaN,999,999,high,No Target,None
148,Critical,NaN,0.828,0.7579999999999999,999,1,high,No Target,tone4
149,Normal,NaN,None,NaN,999,999,high,No Target,None
150,Normal,NaN,None,NaN,999,999,high,No Target,None
151,Normal,NaN,None,NaN,999,999,high,No Target,None
152,Normal,0.804,None,NaN,1,999,high,Target Absent,None
153,Normal,NaN,None,NaN,999,999,high,No Target,None
154,Normal,NaN,None,NaN,999,999,high,No Target,None
155,Normal,NaN,None,NaN,999,999,high,No Target,None
156,Normal,NaN,None,NaN,999,999,high,No Target,None
157,Normal,NaN,None,NaN,999,999,high,No Target,None
158,Critical,NaN,0.76,NaN,999,0,high,No Target,tone4
159,Normal,NaN,None,NaN,999,999,high,No Target,None
160,Normal,NaN,None,NaN,999,999,high,No Target,None
161,Critical,NaN,0.762,0.44799999999999995,999,1,high,No Target,tone2
162,Normal,NaN,None,NaN,999,999,high,No Target,None
163,Normal,NaN,None,NaN,999,999,high,No Target,None
164,Critical,NaN,0.527,0.9419999999999998,999,1,high,No Target,tone4
165,Normal,NaN,None,NaN,999,999,high,No Target,None
166,Normal,NaN,None,NaN,999,999,high,No Target,None
167,Critical,0.873,0.636,0.6769999999999999,999,999,high,Target Present,tone3
168,Normal,NaN,None,NaN,999,999,high,No Target,None
169,Normal,NaN,None,NaN,999,999,high,No Target,None
170,Normal,NaN,None,NaN,999,999,high,No Target,None
171,Normal,NaN,None,NaN,999,999,high,No Target,None
172,Normal,NaN,None,NaN,999,999,high,No Target,None
173,Normal,NaN,None,NaN,999,999,high,No Target,None
174,Normal,NaN,None,NaN,999,999,high,No Target,None
175,Normal,NaN,None,NaN,999,999,high,No Target,None
176,Normal,NaN,None,NaN,999,999,high,No Target,None
177,Normal,NaN,None,NaN,999,999,high,No Target,None
178,Normal,NaN,None,NaN,999,999,high,No Target,None
179,Normal,NaN,None,NaN,999,999,high,No Target,None
180,Normal,NaN,None,NaN,999,999,low,No Target,None
181,Normal,NaN,None,NaN,999,999,low,No Target,None
182,Critical,NaN,0.348,0.473,999,1,low,No Target,tone2
183,Normal,NaN,None,NaN,999,999,low,No Target,None
184,Normal,NaN,None,NaN,999,999,low,No Target,None
185,Critical,NaN,0.141,NaN,999,0,low,No Target,tone4
186,Normal,NaN,None,NaN,999,999,low,No Target,None
187,Normal,NaN,None,NaN,999,999,low,No Target,None
188,Normal,NaN,None,NaN,999,999,low,No Target,None
189,Critical,NaN,0.315,0.46900000000000003,999,1,low,No Target,tone1
190,Normal,NaN,None,NaN,999,999,low,No Target,None
191,Normal,NaN,None,NaN,999,999,low,No Target,None
192,Normal,NaN,None,NaN,999,999,low,No Target,None
193,Normal,NaN,None,NaN,999,999,low,No Target,None
194,Critical,NaN,0.12,NaN,999,0,low,No Target,tone1
195,Normal,NaN,None,NaN,999,999,low,No Target,None
196,Normal,NaN,None,NaN,999,999,low,No Target,None
197,Normal,NaN,None,NaN,999,999,low,No Target,None
198,Normal,NaN,None,NaN,999,999,low,No Target,None
199,Normal,NaN,None,NaN,999,999,low,No Target,None
200,Normal,NaN,None,NaN,999,999,low,No Target,None
201,Normal,0.675,None,NaN,1,999,low,Target Present,None
202,Normal,NaN,None,NaN,999,999,low,No Target,None
203,Normal,NaN,None,NaN,999,999,low,No Target,None
204,Normal,NaN,None,NaN,999,999,low,No Target,None
205,Critical,0.794,0.873,0.42500000000000004,999,1,low,Target Absent,tone3
206,Normal,NaN,None,NaN,999,999,low,No Target,None
207,Normal,NaN,None,NaN,999,999,low,No Target,None
208,Normal,0.661,None,NaN,1,999,low,Target Present,None
209,Normal,NaN,None,NaN,999,999,low,No Target,None
210,Normal,NaN,None,NaN,999,999,low,No Target,None
211,Normal,0.5509999999999999,None,NaN,1,999,low,Target Present,None
212,Normal,NaN,None,NaN,999,999,low,No Target,None
213,Normal,NaN,None,NaN,999,999,low,No Target,None
214,Normal,NaN,None,NaN,999,999,low,No Target,None
215,Normal,NaN,None,NaN,999,999,low,No Target,None
216,Normal,NaN,None,NaN,999,999,low,No Target,None
217,Critical,NaN,0.841,NaN,999,0,low,No Target,tone4
218,Normal,NaN,None,NaN,999,999,low,No Target,None
219,Normal,NaN,None,NaN,999,999,low,No Target,None
220,Critical,NaN,0.082,NaN,999,0,low,No Target,tone2
221,Normal,NaN,None,NaN,999,999,low,No Target,None
222,Normal,NaN,None,NaN,999,999,low,No Target,None
223,Normal,0.74,None,NaN,1,999,low,Target Absent,None
224,Normal,NaN,None,NaN,999,999,low,No Target,None
225,Normal,NaN,None,NaN,999,999,low,No Target,None
226,Critical,NaN,0.152,0.53,999,1,low,No Target,tone1
227,Normal,NaN,None,NaN,999,999,low,No Target,None
228,Normal,NaN,None,NaN,999,999,low,No Target,None
229,Normal,0.597,None,NaN,1,999,low,Target Absent,None
230,Normal,NaN,None,NaN,999,999,low,No Target,None
231,Normal,NaN,None,NaN,999,999,low,No Target,None
232,Normal,NaN,None,NaN,999,999,low,No Target,None
233,Normal,NaN,None,NaN,999,999,low,No Target,None
234,Normal,NaN,None,NaN,999,999,low,No Target,None
235,Critical,NaN,0.905,0.4079999999999999,999,1,low,No Target,tone1
236,Normal,NaN,None,NaN,999,999,low,No Target,None
237,Normal,NaN,None,NaN,999,999,low,No Target,None
238,Normal,NaN,None,NaN,999,999,low,No Target,None
239,Normal,NaN,None,NaN,999,999,low,No Target,None
240,Normal,0.643,None,NaN,1,999,high,Target Present,None
241,Normal,NaN,None,NaN,999,999,high,No Target,None
242,Normal,NaN,None,NaN,999,999,high,No Target,None
243,Normal,NaN,None,NaN,999,999,high,No Target,None
244,Normal,0.875,None,NaN,1,999,high,Target Absent,None
245,Normal,NaN,None,NaN,999,999,high,No Target,None
246,Normal,NaN,None,NaN,999,999,high,No Target,None
247,Normal,NaN,None,NaN,999,999,high,No Target,None
248,Normal,NaN,None,NaN,999,999,high,No Target,None
249,Normal,NaN,None,NaN,999,999,high,No Target,None
250,Normal,0.742,None,NaN,1,999,high,Target Present,None
251,Normal,NaN,None,NaN,999,999,high,No Target,None
252,Normal,NaN,None,NaN,999,999,high,No Target,None
253,Normal,0.804,None,NaN,1,999,high,Target Absent,None
254,Normal,NaN,None,NaN,999,999,high,No Target,None
255,Normal,NaN,None,NaN,999,999,high,No Target,None
256,Critical,NaN,0.841,0.45999999999999996,999,1,high,No Target,tone1
257,Normal,NaN,None,NaN,999,999,high,No Target,None
258,Normal,NaN,None,NaN,999,999,high,No Target,None
259,Normal,NaN,None,NaN,999,999,high,No Target,None
260,Normal,NaN,None,NaN,999,999,high,No Target,None
261,Normal,NaN,None,NaN,999,999,high,No Target,None
262,Normal,NaN,None,NaN,999,999,high,No Target,None
263,Normal,NaN,None,NaN,999,999,high,No Target,None
264,Normal,NaN,None,NaN,999,999,high,No Target,None
265,Normal,NaN,None,NaN,999,999,high,No Target,None
266,Normal,0.637,None,NaN,1,999,high,Target Present,None
267,Normal,NaN,None,NaN,999,999,high,No Target,None
268,Normal,NaN,None,NaN,999,999,high,No Target,None
269,Normal,NaN,None,NaN,999,999,high,No Target,None
270,Critical,NaN,0.287,NaN,999,0,high,No Target,tone4
271,Normal,NaN,None,NaN,999,999,high,No Target,None
272,Normal,NaN,None,NaN,999,999,high,No Target,None
273,Normal,NaN,None,NaN,999,999,high,No Target,None
274,Critical,NaN,0.347,0.492,999,1,high,No Target,tone3
275,Normal,NaN,None,NaN,999,999,high,No Target,None
276,Normal,NaN,None,NaN,999,999,high,No Target,None
277,Critical,NaN,0.082,0.503,999,1,high,No Target,tone3
278,Normal,NaN,None,NaN,999,999,high,No Target,None
279,Normal,NaN,None,NaN,999,999,high,No Target,None
280,Critical,NaN,0.76,0.385,999,1,high,No Target,tone2
281,Normal,NaN,None,NaN,999,999,high,No Target,None
282,Normal,NaN,None,NaN,999,999,high,No Target,None
283,Critical,NaN,0.345,0.373,999,1,high,No Target,tone3
284,Normal,NaN,None,NaN,999,999,high,No Target,None
285,Normal,NaN,None,NaN,999,999,high,No Target,None
286,Normal,0.984,None,NaN,1,999,high,Target Absent,None
287,Normal,NaN,None,NaN,999,999,high,No Target,None
288,Normal,NaN,None,NaN,999,999,high,No Target,None
289,Normal,NaN,None,NaN,999,999,high,No Target,None
290,Critical,NaN,0.886,0.43400000000000005,999,1,high,No Target,tone1
291,Normal,NaN,None,NaN,999,999,high,No Target,None
292,Normal,NaN,None,NaN,999,999,high,No Target,None
293,Normal,NaN,None,NaN,999,999,high,No Target,None
294,Normal,NaN,None,NaN,999,999,high,No Target,None
295,Normal,NaN,None,NaN,999,999,high,No Target,None
296,Critical,NaN,0.636,0.5930000000000001,999,1,high,No Target,tone4
297,Normal,NaN,None,NaN,999,999,high,No Target,None
298,Normal,NaN,None,NaN,999,999,high,No Target,None
299,Critical,NaN,0.995,NaN,999,0,high,No Target,tone1
300,Normal,NaN,None,NaN,999,999,low,No Target,None
301,Normal,NaN,None,NaN,999,999,low,No Target,None
302,Normal,NaN,None,NaN,999,999,low,No Target,None
303,Critical,0.6990000000000001,0.42,0.5429999999999999,999,1,low,Target Absent,tone3
304,Normal,NaN,None,NaN,999,999,low,No Target,None
305,Normal,NaN,None,NaN,999,999,low,No Target,None
306,Normal,NaN,None,NaN,999,999,low,No Target,None
307,Normal,0.528,None,NaN,1,999,low,Target Present,None
308,Normal,NaN,None,NaN,999,999,low,No Target,None
309,Normal,NaN,None,NaN,999,999,low,No Target,None
310,Normal,NaN,None,NaN,999,999,low,No Target,None
311,Normal,NaN,None,NaN,999,999,low,No Target,None
312,Normal,NaN,None,NaN,999,999,low,No Target,None
313,Normal,NaN,None,NaN,999,999,low,No Target,None
314,Critical,NaN,0.523,NaN,999,0,low,No Target,tone4
315,Normal,NaN,None,NaN,999,999,low,No Target,None
316,Normal,NaN,None,NaN,999,999,low,No Target,None
317,Normal,0.7210000000000001,None,NaN,1,999,low,Target Absent,None
318,Normal,NaN,None,NaN,999,999,low,No Target,None
319,Normal,NaN,None,NaN,999,999,low,No Target,None
320,Critical,NaN,0.723,0.43600000000000005,999,1,low,No Target,tone2
321,Normal,NaN,None,NaN,999,999,low,No Target,None
322,Normal,NaN,None,NaN,999,999,low,No Target,None
323,Critical,NaN,0.698,0.4630000000000001,999,1,low,No Target,tone1
324,Normal,NaN,None,NaN,999,999,low,No Target,None
325,Normal,NaN,None,NaN,999,999,low,No Target,None
326,Normal,NaN,None,NaN,999,999,low,No Target,None
327,Critical,NaN,0.561,0.481,999,1,low,No Target,tone2
328,Normal,NaN,None,NaN,999,999,low,No Target,None
329,Normal,NaN,None,NaN,999,999,low,No Target,None
330,Critical,NaN,0.046,0.44,999,1,low,No Target,tone1
331,Normal,NaN,None,NaN,999,999,low,No Target,None
332,Normal,NaN,None,NaN,999,999,low,No Target,None
333,Normal,NaN,None,NaN,999,999,low,No Target,None
334,Critical,NaN,0.724,0.361,999,1,low,No Target,tone1
335,Normal,NaN,None,NaN,999,999,low,No Target,None
336,Normal,NaN,None,NaN,999,999,low,No Target,None
337,Normal,NaN,None,NaN,999,999,low,No Target,None
338,Normal,NaN,None,NaN,999,999,low,No Target,None
339,Normal,NaN,None,NaN,999,999,low,No Target,None
340,Normal,0.653,None,0.725,666,666,low,Target Present,None
341,Normal,NaN,None,NaN,999,999,low,No Target,None
342,Normal,NaN,None,NaN,999,999,low,No Target,None
343,Normal,1.021,None,NaN,1,999,low,Target Present,None
344,Normal,NaN,None,NaN,999,999,low,No Target,None
345,Normal,NaN,None,NaN,999,999,low,No Target,None
346,Critical,0.6559999999999999,0.347,0.4610000000000001,999,1,low,Target Absent,tone1
347,Normal,NaN,None,NaN,999,999,low,No Target,None
348,Normal,NaN,None,NaN,999,999,low,No Target,None
349,Critical,NaN,0.345,0.496,999,1,low,No Target,tone1
350,Normal,NaN,None,NaN,999,999,low,No Target,None
351,Normal,NaN,None,NaN,999,999,low,No Target,None
352,Normal,NaN,None,NaN,999,999,low,No Target,None
353,Normal,NaN,None,NaN,999,999,low,No Target,None
354,Normal,NaN,None,NaN,999,999,low,No Target,None
355,Normal,NaN,None,NaN,999,999,low,No Target,None
356,Normal,NaN,None,NaN,999,999,low,No Target,None
357,Normal,NaN,None,NaN,999,999,low,No Target,None
358,Normal,NaN,None,NaN,999,999,low,No Target,None
359,Normal,NaN,None,NaN,999,999,low,No Target,None
360,Normal,NaN,None,NaN,999,999,low,No Target,None
361,Normal,NaN,None,NaN,999,999,low,No Target,None
362,Normal,NaN,None,NaN,999,999,low,No Target,None
363,Normal,0.641,None,NaN,1,999,low,Target Present,None
364,Normal,NaN,None,NaN,999,999,low,No Target,None
365,Normal,NaN,None,NaN,999,999,low,No Target,None
366,Normal,NaN,None,NaN,999,999,low,No Target,None
367,Critical,NaN,0.12,0.473,999,1,low,No Target,tone3
368,Normal,NaN,None,NaN,999,999,low,No Target,None
369,Normal,NaN,None,NaN,999,999,low,No Target,None
370,Normal,NaN,None,NaN,999,999,low,No Target,None
371,Normal,NaN,None,NaN,999,999,low,No Target,None
372,Normal,NaN,None,NaN,999,999,low,No Target,None
373,Normal,NaN,None,NaN,999,999,low,No Target,None
374,Normal,0.5800000000000001,None,NaN,1,999,low,Target Present,None
375,Normal,NaN,None,NaN,999,999,low,No Target,None
376,Normal,NaN,None,NaN,999,999,low,No Target,None
377,Normal,NaN,None,NaN,999,999,low,No Target,None
378,Normal,NaN,None,NaN,999,999,low,No Target,None
379,Normal,0.7250000000000001,None,NaN,1,999,low,Target Absent,None
380,Normal,NaN,None,NaN,999,999,low,No Target,None
381,Normal,NaN,None,NaN,999,999,low,No Target,None
382,Normal,NaN,None,NaN,999,999,low,No Target,None
383,Critical,NaN,0.43,0.435,999,1,low,No Target,tone1
384,Normal,NaN,None,NaN,999,999,low,No Target,None
385,Normal,NaN,None,NaN,999,999,low,No Target,None
386,Normal,0.6359999999999999,None,NaN,1,999,low,Target Present,None
387,Normal,NaN,None,NaN,999,999,low,No Target,None
388,Normal,NaN,None,NaN,999,999,low,No Target,None
389,Critical,NaN,0.231,NaN,999,0,low,No Target,tone4
390,Normal,NaN,None,NaN,999,999,low,No Target,None
391,Normal,NaN,None,NaN,999,999,low,No Target,None
392,Critical,NaN,0.345,0.511,999,1,low,No Target,tone4
393,Normal,NaN,None,NaN,999,999,low,No Target,None
394,Normal,NaN,None,NaN,999,999,low,No Target,None
395,Normal,NaN,None,NaN,999,999,low,No Target,None
396,Normal,NaN,None,NaN,999,999,low,No Target,None
397,Critical,0.607,0.14,0.44299999999999995,999,999,low,Target Absent,tone4
398,Normal,NaN,None,NaN,999,999,low,No Target,None
399,Normal,NaN,None,NaN,999,999,low,No Target,None
400,Critical,NaN,0.724,0.45999999999999996,999,1,low,No Target,tone2
401,Normal,NaN,None,NaN,999,999,low,No Target,None
402,Normal,NaN,None,NaN,999,999,low,No Target,None
403,Normal,NaN,None,NaN,999,999,low,No Target,None
404,Critical,NaN,0.762,0.4630000000000001,999,1,low,No Target,tone4
405,Normal,NaN,None,NaN,999,999,low,No Target,None
406,Normal,NaN,None,NaN,999,999,low,No Target,None
407,Critical,NaN,0.141,0.5599999999999999,999,1,low,No Target,tone1
408,Normal,NaN,None,NaN,999,999,low,No Target,None
409,Normal,NaN,None,NaN,999,999,low,No Target,None
410,Normal,NaN,None,NaN,999,999,low,No Target,None
411,Normal,NaN,None,NaN,999,999,low,No Target,None
412,Normal,NaN,None,NaN,999,999,low,No Target,None
413,Critical,0.601,0.636,0.469,999,1,low,Target Absent,tone2
414,Normal,NaN,None,NaN,999,999,low,No Target,None
415,Normal,NaN,None,NaN,999,999,low,No Target,None
416,Normal,NaN,None,NaN,999,999,low,No Target,None
417,Normal,NaN,None,NaN,999,999,low,No Target,None
418,Normal,NaN,None,NaN,999,999,low,No Target,None
419,Normal,NaN,None,NaN,999,999,low,No Target,None
420,Normal,0.75,None,NaN,1,999,high,Target Absent,None
421,Normal,NaN,None,NaN,999,999,high,No Target,None
422,Normal,NaN,None,NaN,999,999,high,No Target,None
423,Normal,NaN,None,NaN,999,999,high,No Target,None
424,Normal,NaN,None,NaN,999,999,high,No Target,None
425,Critical,NaN,0.686,0.44799999999999984,999,1,high,No Target,tone1
426,Normal,NaN,None,NaN,999,999,high,No Target,None
427,Normal,NaN,None,NaN,999,999,high,No Target,None
428,Normal,NaN,None,NaN,999,999,high,No Target,None
429,Critical,NaN,0.723,0.356,999,1,high,No Target,tone3
430,Normal,NaN,None,NaN,999,999,high,No Target,None
431,Normal,NaN,None,NaN,999,999,high,No Target,None
432,Normal,NaN,None,NaN,999,999,high,No Target,None
433,Critical,NaN,0.537,0.42399999999999993,999,1,high,No Target,tone3
434,Normal,NaN,None,NaN,999,999,high,No Target,None
435,Normal,NaN,None,NaN,999,999,high,No Target,None
436,Normal,NaN,None,NaN,999,999,high,No Target,None
437,Normal,NaN,None,NaN,999,999,high,No Target,None
438,Critical,NaN,0.662,0.44000000000000006,999,1,high,No Target,tone2
439,Normal,NaN,None,NaN,999,999,high,No Target,None
440,Normal,NaN,None,NaN,999,999,high,No Target,None
441,Normal,NaN,None,NaN,999,999,high,No Target,None
442,Normal,NaN,None,NaN,999,999,high,No Target,None
443,Normal,0.9179999999999999,None,0.5096393442622951,666,666,high,Target Present,None
444,Normal,NaN,None,NaN,999,999,high,No Target,None
445,Normal,NaN,None,NaN,999,999,high,No Target,None
446,Critical,NaN,0.118,0.44699999999999995,999,1,high,No Target,tone3
447,Normal,NaN,None,NaN,999,999,high,No Target,None
448,Normal,NaN,None,NaN,999,999,high,No Target,None
449,Normal,NaN,None,NaN,999,999,high,No Target,None
450,Critical,0.613,0.394,0.499,999,1,high,Target Present,tone3
451,Normal,NaN,None,NaN,999,999,high,No Target,None
452,Normal,NaN,None,NaN,999,999,high,No Target,None
453,Normal,0.5840000000000001,None,NaN,1,999,high,Target Present,None
454,Normal,NaN,None,NaN,999,999,high,No Target,None
455,Normal,NaN,None,NaN,999,999,high,No Target,None
456,Critical,NaN,0.841,0.5096393442622951,999,1,high,No Target,tone3
457,Normal,NaN,None,NaN,999,999,high,No Target,None
458,Normal,NaN,None,NaN,999,999,high,No Target,None
459,Normal,1.23,None,NaN,1,999,high,Target Absent,None
460,Normal,NaN,None,NaN,999,999,high,No Target,None
461,Normal,NaN,None,NaN,999,999,high,No Target,None
462,Critical,NaN,0.674,0.44399999999999984,999,1,high,No Target,tone2
463,Normal,NaN,None,NaN,999,999,high,No Target,None
464,Normal,NaN,None,NaN,999,999,high,No Target,None
465,Critical,NaN,0.347,0.599,999,1,high,No Target,tone3
466,Normal,NaN,None,NaN,999,999,high,No Target,None
467,Normal,NaN,None,NaN,999,999,high,No Target,None
468,Normal,NaN,None,NaN,999,999,high,No Target,None
469,Normal,NaN,None,NaN,999,999,high,No Target,None
470,Normal,NaN,None,NaN,999,999,high,No Target,None
471,Normal,0.815,None,NaN,1,999,high,Target Absent,None
472,Normal,NaN,None,NaN,999,999,high,No Target,None
473,Normal,NaN,None,NaN,999,999,high,No Target,None
474,Normal,NaN,None,NaN,999,999,high,No Target,None
475,Normal,NaN,None,NaN,999,999,high,No Target,None
476,Normal,NaN,None,NaN,999,999,high,No Target,None
477,Normal,NaN,None,NaN,999,999,high,No Target,None
478,Normal,NaN,None,NaN,999,999,high,No Target,None
479,Normal,NaN,None,NaN,999,999,high,No Target,None
