,Image Name,Cat. 1,Cat. 2,Cat. 3,Cat. 4,Cat. 5,True Skill Rating,Load,Exemplar of,To be asked,Trial Type,Audio,RT to TO,RT VS,RT to TO,Sound Onset,Sound Hz,Trial N.,trial_n
138,2008_005251.jpg, person,,,,,18.43977255,low, person,,No Target,Normal,None,Na,Na,None,None,0,0
384,2010_004175.jpg, cat,,,,,10.23663576,low, cat,,No Target,Normal,None,Na,Na,None,None,1,1
210,2009_000087.jpg, sofa,,,,,19.8923897,low, sofa,,No Target,Normal,None,Na,Na,None,None,2,2
333,2010_001192.jpg, sofa, person,,,,20.92452836,low, sofa,,No Target,Normal,None,Na,Na,None,None,3,3
48,2008_001040.jpg, boat,,,,,20.2100437,low, boat,,No Target,Normal,None,Na,Na,None,None,4,4
340,2010_001594.jpg, boat,,,,,19.04897462,low, boat, person,Target Absent,Normal,None,"[('q', 1.6837418430441176)]",-999,None,None,5,5
131,2008_004771.jpg, aeroplane,,,,,18.79588987,low, aeroplane,,No Target,Normal,None,Na,Na,None,None,6,6
375,2010_003592.jpg, aeroplane,,,,,11.64066234,low, aeroplane,,No Target,Normal,None,Na,Na,None,None,7,7
327,2010_000805.jpg, dog, bottle,,,,18.86070334,low, bottle,,No Target,Critical,"[('space', 0.9160143426197465)]",Na,Na,0.414,tone2,8,8
426,2011_000734.jpg, bird,,,,,18.23108888,low, bird,,No Target,Normal,None,Na,Na,None,None,9,9
107,2008_003838.jpg, pottedplant, chair, dog,,,17.39857058,low, pottedplant,,No Target,Normal,None,Na,Na,None,None,10,10
311,2009_004874.jpg, chair,,,,,19.81187434,low, chair,,No Target,Normal,None,Na,Na,None,None,11,11
140,2008_005345.jpg, pottedplant,,,,,16.52047637,low, pottedplant, dog,Target Absent,Normal,None,"[('q', 1.8684343396234908)]",-999,None,None,12,12
319,2010_000090.jpg, chair, dog,,,,13.83671015,low, dog,,No Target,Normal,None,Na,Na,None,None,13,13
335,2010_001417.jpg, cat,,,,,14.06671444,low, cat,,No Target,Normal,None,Na,Na,None,None,14,14
329,2010_000846.jpg, dog,,,,,11.4893019,low, dog,,No Target,Normal,None,Na,Na,None,None,15,15
31,2008_000533.jpg, bird,,,,,13.80945657,low, bird,,No Target,Normal,None,Na,Na,None,None,16,16
142,2008_005444.jpg, person, sofa,,,,14.90489029,low, sofa,,No Target,Normal,None,Na,Na,None,None,17,17
353,2010_002393.jpg, boat,,,,,20.13141109,low, boat,,No Target,Critical,"[('space', 0.23816715023713186)]",Na,Na,0.784,tone3,18,18
16,2008_000197.jpg, aeroplane,,,,,16.57609723,low, aeroplane,,No Target,Normal,None,Na,Na,None,None,19,19
149,2008_005673.jpg, cat,,,,,18.6869051,low, cat,,No Target,Normal,None,Na,Na,None,None,20,20
449,2011_001753.jpg, aeroplane,,,,,11.34641314,low, aeroplane,,No Target,Normal,None,Na,Na,None,None,21,21
94,2008_003045.jpg, cat,,,,,16.41703919,low, cat, cat,Target Present,Normal,None,"[('p', 1.632181895984104)]",-999,None,None,22,22
457,2011_001886.jpg, boat,,,,,19.6857523,low, boat,,No Target,Normal,None,Na,Na,None,None,23,23
245,2009_001723.jpg, boat,,,,,19.26433768,low, boat,,No Target,Normal,None,Na,Na,None,None,24,24
85,2008_002442.jpg, person, chair, dog, car,,19.9398263,low, car,,No Target,Normal,None,Na,Na,None,None,25,25
341,2010_001731.jpg, chair,,,,,9.955368401,low, chair,,No Target,Critical,"[('space', 0.6481378794051125)]",Na,Na,0.153,tone1,26,26
367,2010_003280.jpg, person, horse,,,,20.30683532,low, horse,,No Target,Normal,None,Na,Na,None,None,27,27
345,2010_001863.jpg, cat,,,,,16.82752057,low, cat,,No Target,Normal,None,Na,Na,None,None,28,28
372,2010_003453.jpg, car,,,,,17.7316961,low, car,,No Target,Normal,None,Na,Na,None,None,29,29
251,2009_001837.jpg, horse,,,,,19.27378311,low, horse,,No Target,Normal,None,Na,Na,None,None,30,30
383,2010_004145.jpg, horse,,,,,18.59045643,low, horse,,No Target,Critical,"[('space', 0.6150835317821475)]",Na,Na,0.152,tone2,31,31
4,2008_000066.jpg, dog,,,,,14.84037085,low, dog,,No Target,Normal,None,Na,Na,None,None,32,32
256,2009_002120.jpg, car,,,,,19.86595411,low, car,,No Target,Normal,None,Na,Na,None,None,33,33
458,2011_001959.jpg, bird,,,,,9.576867709,low, bird,,No Target,Critical,"[('space', 0.8254880064268946)]",Na,Na,0.345,tone1,34,34
276,2009_003127.jpg, horse,,,,,19.10307284,low, horse,,No Target,Normal,None,Na,Na,None,None,35,35
314,2009_005036.jpg, car, aeroplane,,,,16.811685,low, aeroplane,,No Target,Normal,None,Na,Na,None,None,36,36
213,2009_000169.jpg, person, horse, car,,,20.93459986,low, car,,No Target,Critical,None,Na,Na,0.746,tone4,37,37
479,2011_003098.jpg, dog,,,,,14.52660239,low, dog,,No Target,Normal,None,Na,Na,None,None,38,38
232,2009_000939.jpg, tvmonitor, chair, sofa,,,21.02083881,low, sofa,,No Target,Normal,None,Na,Na,None,None,39,39
173,2008_006921.jpg, car,,,,,18.41450385,low, car, horse,Target Absent,Normal,None,"[('q', 1.7421284204756375)]",-999,None,None,40,40
328,2010_000838.jpg, person, horse,,,,20.40572806,low, horse,,No Target,Normal,None,Na,Na,None,None,41,41
11,2008_000163.jpg, car,,,,,18.70849772,low, car,,No Target,Normal,None,Na,Na,None,None,42,42
318,2010_000073.jpg, car,,,,,18.42947513,low, car,,No Target,Normal,None,Na,Na,None,None,43,43
477,2011_003023.jpg, sheep, person,,,,14.02332689,low, person,,No Target,Critical,None,Na,Na,0.12,tone4,44,44
120,2008_004414.jpg, car,,,,,20.49470892,low, car,,No Target,Normal,None,Na,Na,None,None,45,45
351,2010_002283.jpg, horse,,,,,18.05782528,low, horse,,No Target,Normal,None,Na,Na,None,None,46,46
263,2009_002415.jpg, chair, diningtable,,,,19.90451448,low, chair,,No Target,Critical,"[('space', 0.18670470610959455)]",Na,Na,0.724,tone3,47,47
238,2009_001314.jpg, bird,,,,,8.549086134,low, bird,,No Target,Normal,None,Na,Na,None,None,48,48
391,2010_004662.jpg, boat,,,,,21.19862042,low, boat,,No Target,Normal,None,Na,Na,None,None,49,49
418,2011_000379.jpg, sofa, cat,,,,21.05425029,low, sofa,,No Target,Normal,None,Na,Na,None,None,50,50
414,2010_006078.jpg, cat,,,,,13.15004464,low, cat,,No Target,Normal,None,Na,Na,None,None,51,51
108,2008_003846.jpg, car,,,,,18.10032217,low, car,,No Target,Critical,"[('space', 0.8509197348466842)]",Na,Na,0.347,tone2,52,52
116,2008_004208.jpg, person, chair,,,,21.15894772,low, person,,No Target,Normal,None,Na,Na,None,None,53,53
82,2008_002357.jpg, person,,,,,15.28084218,low, person,,No Target,Normal,None,Na,Na,None,None,54,54
115,2008_004175.jpg, horse,,,,,18.09561576,low, horse, horse,Target Present,Normal,None,"[('p', 1.5581652001783368)]",-999,None,None,55,55
36,2008_000646.jpg, person,,,,,13.39574725,low, person,,No Target,Normal,None,Na,Na,None,None,56,56
473,2011_002766.jpg, sofa, dog,,,,19.88562666,low, sofa,,No Target,Normal,None,Na,Na,None,None,57,57
323,2010_000447.jpg, chair,,,,,18.00822423,low, chair,,No Target,Normal,None,Na,Na,None,None,58,58
416,2011_000129.jpg, aeroplane,,,,,15.90618893,low, aeroplane, aeroplane,Target Present,Normal,None,"[('p', 1.6014761715123313)]",-999,None,None,59,59
41,2008_000803.jpg, person, bicycle, motorbike,,,31.27613146,high, person,,No Target,Normal,None,Na,Na,None,None,0,60
63,2008_001673.jpg, person, chair, bird,,,29.63012123,high, bird, bird,Target Present,Critical,"[('space', 0.7905716950190254)]","[('p', 1.6865526072506327)]",-999,0.231,tone1,1,61
218,2009_000449.jpg, sofa, dog, person,,,29.28309157,high, sofa,,No Target,Normal,None,Na,Na,None,None,2,62
404,2010_005572.jpg, person, motorbike,,,,31.07685831,high, person,,No Target,Normal,None,Na,Na,None,None,3,63
162,2008_006303.jpg, chair,,,,,28.72363665,high, chair,,No Target,Critical,"[('space', 0.758212412125431)]",Na,Na,0.19,tone1,4,64
425,2011_000675.jpg, person, horse,,,,30.73068063,high, horse,,No Target,Normal,None,Na,Na,None,None,5,65
355,2010_002462.jpg, pottedplant, person, bottle, diningtable,,35.49954365,high, bottle,,No Target,Normal,None,Na,Na,None,None,6,66
431,2011_001025.jpg, pottedplant, person, bicycle, car,,33.36715275,high, car,,No Target,Critical,"[('space', 0.27063305913179647)]",Na,Na,0.662,tone3,7,67
72,2008_002037.jpg, person, dog,,,,30.20203583,high, dog,,No Target,Normal,None,Na,Na,None,None,8,68
306,2009_004674.jpg, sofa, chair, person,,,33.18559025,high, chair,,No Target,Normal,None,Na,Na,None,None,9,69
206,2008_008591.jpg, person, bicycle, bottle,,,30.12805384,high, bottle,,No Target,Normal,None,Na,Na,None,None,10,70
455,2011_001862.jpg, pottedplant, sofa, chair, dog, diningtable,32.89256213,high, chair,,No Target,Normal,None,Na,Na,None,None,11,71
181,2008_007388.jpg, pottedplant, chair, diningtable,,,28.76635784,high, chair, chair,Target Present,Normal,None,"[('p', 1.7994689796687453)]",-999,None,None,12,72
1,2008_000036.jpg, person, bicycle, boat,,,33.11883424,high, boat,,No Target,Normal,None,Na,Na,None,None,13,73
478,2011_003086.jpg, bus, car, person,,,29.14351571,high, car,,No Target,Normal,None,Na,Na,None,None,14,74
33,2008_000564.jpg, pottedplant, person,,,,31.19071287,high, person,,No Target,Normal,None,Na,Na,None,None,15,75
405,2010_005595.jpg, horse,,,,,29.69412347,high, horse, car,Target Absent,Normal,None,"[('q', 2.7607865464233328)]",-999,None,None,16,76
165,2008_006481.jpg, bird, boat,,,,29.3142336,high, bird,,No Target,Normal,None,Na,Na,None,None,17,77
186,2008_007534.jpg, car, dog,,,,31.13697328,high, car,,No Target,Normal,None,Na,Na,None,None,18,78
435,2011_001116.jpg, person, cat,,,,29.77854418,high, cat,,No Target,Normal,None,Na,Na,None,None,19,79
67,2008_001920.jpg, tvmonitor, person,,,,34.98802186,high, person, bottle,Target Absent,Normal,None,"[('p', 1.7643126171897165)]",-999,None,None,20,80
279,2009_003265.jpg, person, chair, bottle, diningtable, tvmonitor,39.0005066,high, chair,,No Target,Normal,None,Na,Na,None,None,21,81
80,2008_002199.jpg, car, bottle, person,,,36.80648002,high, car,,No Target,Normal,None,Na,Na,None,None,22,82
349,2010_002183.jpg, person, horse,,,,34.55757717,high, horse,,No Target,Normal,None,Na,Na,None,None,23,83
52,2008_001278.jpg, person, horse,,,,32.48053186,high, horse,,No Target,Normal,None,Na,Na,None,None,24,84
34,2008_000619.jpg, car, cat,,,,33.46218479,high, cat, cat,Target Present,Normal,None,"[('p', 1.6378082710434683)]",-999,None,None,25,85
148,2008_005600.jpg, person, cat,,,,30.22651638,high, cat,,No Target,Normal,None,Na,Na,None,None,26,86
200,2008_008341.jpg, pottedplant, person,,,,30.93117424,high, pottedplant,,No Target,Normal,None,Na,Na,None,None,27,87
348,2010_002127.jpg, person, bottle, car,,,34.31316104,high, car,,No Target,Normal,None,Na,Na,None,None,28,88
396,2010_005170.jpg, person, chair, diningtable, sofa,,30.91646677,high, person,,No Target,Normal,None,Na,Na,None,None,29,89
363,2010_003014.jpg, sofa, person,,,,31.45021986,high, person,,No Target,Normal,None,Na,Na,None,None,30,90
37,2008_000697.jpg, bird,,,,,32.06509586,high, bird, horse,Target Absent,Critical,None,"[('q', 1.7696872522355989)]",-999,0.969,tone3,31,91
28,2008_000424.jpg, person,,,,,29.85785785,high, person,,No Target,Normal,None,Na,Na,None,None,32,92
0,2008_000032.jpg, bus, person,,,,30.61203595,high, person,,No Target,Normal,None,Na,Na,None,None,33,93
40,2008_000798.jpg, bird,,,,,29.59459789,high, bird,,No Target,Normal,None,Na,Na,None,None,34,94
390,2010_004542.jpg, person, horse,,,,33.85482115,high, horse,,No Target,Critical,"[('space', 0.9727425150122144)]",Na,Na,0.408,tone1,35,95
55,2008_001329.jpg, car, person,,,,34.57644103,high, car,,No Target,Normal,None,Na,Na,None,None,36,96
296,2009_004199.jpg, bottle,,,,,34.55732937,high, bottle,,No Target,Normal,None,Na,Na,None,None,37,97
393,2010_004844.jpg, pottedplant, person, motorbike, car, bus,30.65978031,high, pottedplant,,No Target,Critical,"[('space', 0.9428017038517282)]",Na,Na,0.527,tone3,38,98
53,2008_001312.jpg, person, bottle,,,,31.29356592,high, bottle,,No Target,Normal,None,Na,Na,None,None,39,99
146,2008_005519.jpg, pottedplant, person, chair, diningtable,,31.52068761,high, chair,,No Target,Normal,None,Na,Na,None,None,40,100
295,2009_004179.jpg, person, chair, dog, car,,31.41085347,high, dog,,No Target,Critical,"[('space', 0.10329950475716032)]",Na,Na,0.674,tone1,41,101
298,2009_004283.jpg, pottedplant, sofa,,,,29.04248887,high, pottedplant,,No Target,Normal,None,Na,Na,None,None,42,102
463,2011_002193.jpg, person, aeroplane,,,,30.18288572,high, aeroplane,,No Target,Normal,None,Na,Na,None,None,43,103
42,2008_000829.jpg, person, dog,,,,30.55610287,high, dog,,No Target,Normal,None,Na,Na,None,None,44,104
465,2011_002358.jpg, person, chair, diningtable, bottle,,32.26151027,high, bottle,,No Target,Critical,"[('space', 0.44773230143619)]",Na,Na,0.951,tone2,45,105
364,2010_003232.jpg, cat,,,,,30.66707338,high, cat,,No Target,Normal,None,Na,Na,None,None,46,106
359,2010_002742.jpg, person, bottle, pottedplant, tvmonitor, chair,31.67638571,high, bottle,,No Target,Normal,"[('space', 0.8760370020754635)]",Na,Na,None,None,47,107
377,2010_003729.jpg, pottedplant, car, chair, bicycle, person,30.13324411,high, pottedplant,,No Target,Critical,None,Na,Na,0.42,tone2,48,108
167,2008_006767.jpg, boat,,,,,32.60330947,high, boat,,No Target,Normal,None,Na,Na,None,None,49,109
394,2010_004950.jpg, boat,,,,,29.96161285,high, boat,,No Target,Normal,None,Na,Na,None,None,50,110
104,2008_003689.jpg, pottedplant, person, chair,,,30.60605981,high, pottedplant,,No Target,Normal,None,Na,Na,None,None,51,111
32,2008_000541.jpg, person, sofa,,,,29.63901024,high, sofa,,No Target,Normal,None,Na,Na,None,None,52,112
423,2011_000548.jpg, bird, cow,,,,30.961221,high, bird,,No Target,Normal,None,Na,Na,None,None,53,113
417,2011_000278.jpg, person, boat, car,,,35.33464598,high, car,,No Target,Normal,None,Na,Na,None,None,54,114
229,2009_000926.jpg, pottedplant, sofa,,,,35.07912895,high, sofa,,No Target,Normal,None,Na,Na,None,None,55,115
102,2008_003575.jpg, person, aeroplane,,,,31.07062434,high, aeroplane,,No Target,Normal,None,Na,Na,None,None,56,116
234,2009_001107.jpg, sofa,,,,,30.15956649,high, sofa,,No Target,Normal,None,Na,Na,None,None,57,117
175,2008_007057.jpg, dog,,,,,40.77312128,high, dog,,No Target,Normal,None,Na,Na,None,None,58,118
78,2008_002185.jpg, person,,,,,34.64372837,high, person,,No Target,Normal,None,Na,Na,None,None,59,119
262,2009_002414.jpg, bird,,,,,29.74278668,high, bird,,No Target,Critical,None,Na,Na,0.537,tone4,0,120
330,2010_000942.jpg, pottedplant, person, chair,,,34.89137182,high, pottedplant,,No Target,Normal,None,Na,Na,None,None,1,121
474,2011_002814.jpg, sofa, bottle, pottedplant, tvmonitor, chair,33.93777562,high, bottle,,No Target,Normal,None,Na,Na,None,None,2,122
185,2008_007527.jpg, tvmonitor, chair,,,,32.38481414,high, chair,,No Target,Critical,"[('space', 0.754195120469376)]",Na,Na,0.274,tone2,3,123
247,2009_001751.jpg, bird,,,,,29.97187988,high, bird,,No Target,Normal,None,Na,Na,None,None,4,124
432,2011_001031.jpg, sofa, chair,,,,29.49317582,high, sofa,,No Target,Normal,None,Na,Na,None,None,5,125
374,2010_003579.jpg, chair, cat,,,,29.79862915,high, cat,,No Target,Normal,None,Na,Na,None,None,6,126
179,2008_007281.jpg, sofa, person, bottle, pottedplant, tvmonitor,36.88958526,high, bottle, bottle,Target Present,Critical,"[('space', 0.6986421149340458)]","[('p', 1.6746196174208308)]",-999,0.219,tone1,7,127
446,2011_001605.jpg, pottedplant, person, motorbike,,,34.41600543,high, pottedplant,,No Target,Normal,None,Na,Na,None,None,8,128
121,2008_004441.jpg, person, bicycle, car,,,30.19059303,high, person,,No Target,Normal,None,Na,Na,None,None,9,129
190,2008_007745.jpg, person, dog,,,,32.95939022,high, dog, bottle,Target Absent,Critical,None,"[('q', 1.7388070488304948)]","['space', 1.114860158850206]",0.561,tone1,10,130
441,2011_001382.jpg, pottedplant, person, diningtable, bottle,,28.93951331,high, pottedplant,,No Target,Normal,None,Na,Na,None,None,11,131
451,2011_001799.jpg, car, motorbike,,,,30.34900042,high, car,,No Target,Normal,None,Na,Na,None,None,12,132
126,2008_004614.jpg, car, bus, person,,,31.30513577,high, car, car,Target Present,Normal,None,"[('p', 1.8330436279939022)]",-999,None,None,13,133
176,2008_007108.jpg, pottedplant, dog,,,,29.85183435,high, dog,,No Target,Normal,None,Na,Na,None,None,14,134
382,2010_003943.jpg, cat,,,,,31.19357079,high, cat,,No Target,Normal,None,Na,Na,None,None,15,135
27,2008_000421.jpg, person, bottle, sofa,,,28.87632024,high, bottle,,No Target,Normal,None,Na,Na,None,None,16,136
407,2010_005608.jpg, bird,,,,,29.2726546,high, bird,,No Target,Normal,None,Na,Na,None,None,17,137
100,2008_003429.jpg, person, motorbike,,,,31.41933888,high, person,,No Target,Normal,None,Na,Na,None,None,18,138
44,2008_000916.jpg, pottedplant, person, train,,,29.32349307,high, pottedplant,,No Target,Normal,None,Na,Na,None,None,19,139
266,2009_002571.jpg, pottedplant, sofa, chair, diningtable,,28.96846506,high, sofa,,No Target,Normal,None,Na,Na,None,None,20,140
287,2009_003801.jpg, car,,,,,29.67521889,high, car,,No Target,Normal,None,Na,Na,None,None,21,141
233,2009_000995.jpg, sofa, person,,,,31.46367723,high, sofa, bird,Target Absent,Normal,None,"[('q', 1.815428099143901)]",-999,None,None,22,142
147,2008_005563.jpg, person, dog,,,,29.07873274,high, dog,,No Target,Normal,None,Na,Na,None,None,23,143
281,2009_003323.jpg, person, horse,,,,28.63959648,high, horse,,No Target,Normal,None,Na,Na,None,None,24,144
410,2010_005718.jpg, car, aeroplane,,,,32.22452077,high, aeroplane,,No Target,Normal,None,Na,Na,None,None,25,145
13,2008_000192.jpg, bird,,,,,29.17631148,high, bird,,No Target,Normal,None,Na,Na,None,None,26,146
158,2008_006121.jpg, person, boat,,,,30.38418727,high, boat,,No Target,Normal,None,Na,Na,None,None,27,147
171,2008_006870.jpg, person, dog,,,,30.6573416,high, dog,,No Target,Critical,"[('space', 0.5867515189238475)]",Na,Na,0.828,tone4,28,148
207,2008_008607.jpg, aeroplane,,,,,32.02068991,high, aeroplane,,No Target,Normal,None,Na,Na,None,None,29,149
411,2010_005894.jpg, chair,,,,,29.02795836,high, chair,,No Target,Normal,None,Na,Na,None,None,30,150
395,2010_005106.jpg, person, aeroplane,,,,30.24293721,high, aeroplane,,No Target,Normal,None,Na,Na,None,None,31,151
128,2008_004646.jpg, person, aeroplane,,,,32.01497355,high, aeroplane, chair,Target Absent,Normal,None,"[('q', 1.8047164617746603)]",-999,None,None,32,152
81,2008_002350.jpg, bird,,,,,29.81492031,high, bird,,No Target,Normal,None,Na,Na,None,None,33,153
75,2008_002084.jpg, pottedplant, person, dog,,,30.00737433,high, pottedplant,,No Target,Normal,None,Na,Na,None,None,34,154
122,2008_004445.jpg, pottedplant, chair,,,,30.34541588,high, pottedplant,,No Target,Normal,None,Na,Na,None,None,35,155
471,2011_002631.jpg, cat,,,,,29.37680987,high, cat,,No Target,Normal,None,Na,Na,None,None,36,156
459,2011_002005.jpg, tvmonitor, chair, person,,,30.09308124,high, chair,,No Target,Normal,None,Na,Na,None,None,37,157
222,2009_000547.jpg, car, horse, person,,,32.99612117,high, horse,,No Target,Critical,None,Na,Na,0.76,tone4,38,158
161,2008_006298.jpg, sheep, person, horse,,,32.38547762,high, horse,,No Target,Normal,None,Na,Na,None,None,39,159
195,2008_007970.jpg, person, aeroplane,,,,30.07304163,high, aeroplane,,No Target,Normal,None,Na,Na,None,None,40,160
105,2008_003755.jpg, car, dog, person,,,29.76355213,high, dog,,No Target,Critical,"[('space', 0.21085806282644626)]",Na,Na,0.762,tone2,41,161
338,2010_001533.jpg, tvmonitor, chair, person,,,33.46727324,high, person,,No Target,Normal,None,Na,Na,None,None,42,162
43,2008_000880.jpg, car, horse, person,,,34.97663775,high, car,,No Target,Normal,None,Na,Na,None,None,43,163
412,2010_006015.jpg, chair, bottle,,,,33.56815114,high, bottle,,No Target,Critical,"[('space', 0.46947802007343853)]",Na,Na,0.527,tone4,44,164
153,2008_005750.jpg, aeroplane,,,,,29.20186946,high, aeroplane,,No Target,Normal,None,Na,Na,None,None,45,165
239,2009_001321.jpg, car, aeroplane,,,,37.93755166,high, aeroplane,,No Target,Normal,None,Na,Na,None,None,46,166
197,2008_008080.jpg, pottedplant, bus, bicycle,,,33.24041884,high, pottedplant, pottedplant,Target Present,Critical,None,"[('q', 1.873677545278042)]","['space', 1.3137464587489376]",0.636,tone3,47,167
129,2008_004690.jpg, bird,,,,,30.51535276,high, bird,,No Target,Normal,None,Na,Na,None,None,48,168
70,2008_002026.jpg, pottedplant, sofa, chair,,,35.71139853,high, pottedplant,,No Target,Normal,None,Na,Na,None,None,49,169
356,2010_002472.jpg, cat,,,,,32.66066395,high, cat,,No Target,Normal,None,Na,Na,None,None,50,170
408,2010_005669.jpg, dog,,,,,33.96067753,high, dog,,No Target,Normal,None,Na,Na,None,None,51,171
415,2011_000009.jpg, tvmonitor, chair, bottle, person,,35.25028289,high, chair,,No Target,Normal,None,Na,Na,None,None,52,172
5,2008_000093.jpg, tvmonitor, chair, sofa,,,29.822033,high, sofa,,No Target,Normal,None,Na,Na,None,None,53,173
282,2009_003338.jpg, person, horse,,,,30.13089803,high, horse,,No Target,Normal,None,Na,Na,None,None,54,174
230,2009_000934.jpg, person, horse,,,,33.98425573,high, horse,,No Target,Normal,None,Na,Na,None,None,55,175
204,2008_008490.jpg, bird,,,,,29.18141014,high, bird,,No Target,Normal,None,Na,Na,None,None,56,176
420,2011_000434.jpg, sofa, person, tvmonitor,,,31.14925642,high, person,,No Target,Normal,None,Na,Na,None,None,57,177
242,2009_001462.jpg, chair,,,,,32.44930357,high, chair,,No Target,Normal,None,Na,Na,None,None,58,178
15,2008_000196.jpg, pottedplant, bicycle, bottle, cat,,35.35378443,high, pottedplant,,No Target,Normal,None,Na,Na,None,None,59,179
10,2008_000151.jpg, aeroplane,,,,,8.171244741,low, aeroplane,,No Target,Normal,None,Na,Na,None,None,0,180
106,2008_003767.jpg, pottedplant,,,,,21.25588755,low, pottedplant,,No Target,Normal,None,Na,Na,None,None,1,181
461,2011_002050.jpg, boat,,,,,17.33155808,low, boat,,No Target,Critical,"[('space', 0.821618394642428)]",Na,Na,0.348,tone2,2,182
208,2008_008714.jpg, sheep, dog,,,,20.07817344,low, dog,,No Target,Normal,None,Na,Na,None,None,3,183
272,2009_002820.jpg, tvmonitor, bird,,,,15.42778804,low, bird,,No Target,Normal,None,Na,Na,None,None,4,184
84,2008_002379.jpg, pottedplant, chair, diningtable,,,17.13857605,low, pottedplant,,No Target,Critical,None,Na,Na,0.141,tone4,5,185
237,2009_001312.jpg, aeroplane,,,,,19.88575045,low, aeroplane,,No Target,Normal,None,Na,Na,None,None,6,186
114,2008_004174.jpg, dog,,,,,16.3635983,low, dog,,No Target,Normal,None,Na,Na,None,None,7,187
297,2009_004263.jpg, pottedplant, chair, diningtable,,,21.05350372,low, pottedplant,,No Target,Normal,None,Na,Na,None,None,8,188
123,2008_004490.jpg, chair, cat,,,,16.57851398,low, chair,,No Target,Critical,"[('space', 0.7847409059249912)]",Na,Na,0.315,tone1,9,189
444,2011_001568.jpg, cat,,,,,17.32743513,low, cat,,No Target,Normal,None,Na,Na,None,None,10,190
268,2009_002697.jpg, horse,,,,,19.78900607,low, horse,,No Target,Normal,None,Na,Na,None,None,11,191
23,2008_000398.jpg, person, bottle,,,,20.42379547,low, bottle,,No Target,Normal,None,Na,Na,None,None,12,192
214,2009_000189.jpg, sofa, dog,,,,20.93405968,low, sofa,,No Target,Normal,None,Na,Na,None,None,13,193
292,2009_004083.jpg, cat,,,,,15.02423943,low, cat,,No Target,Critical,None,Na,Na,0.12,tone1,14,194
304,2009_004620.jpg, aeroplane,,,,,17.41279879,low, aeroplane,,No Target,Normal,None,Na,Na,None,None,15,195
400,2010_005376.jpg, horse,,,,,20.34348153,low, horse,,No Target,Normal,None,Na,Na,None,None,16,196
228,2009_000919.jpg, boat,,,,,19.2535196,low, boat,,No Target,Normal,None,Na,Na,None,None,17,197
303,2009_004594.jpg, car,,,,,19.03017815,low, car,,No Target,Normal,None,Na,Na,None,None,18,198
154,2008_005831.jpg, dog,,,,,15.13791528,low, dog,,No Target,Normal,None,Na,Na,None,None,19,199
362,2010_002990.jpg, person, cat,,,,19.84957835,low, cat,,No Target,Normal,None,Na,Na,None,None,20,200
357,2010_002498.jpg, person, boat,,,,17.99774847,low, boat, boat,Target Present,Normal,None,"[('p', 1.6751789763220586)]",-999,None,None,21,201
290,2009_003974.jpg, car,,,,,16.30622987,low, car,,No Target,Normal,None,Na,Na,None,None,22,202
221,2009_000525.jpg, person,,,,,17.83437809,low, person,,No Target,Normal,None,Na,Na,None,None,23,203
299,2009_004334.jpg, bird,,,,,18.83558265,low, bird,,No Target,Normal,None,Na,Na,None,None,24,204
365,2010_003255.jpg, bird,,,,,13.95929412,low, bird, chair,Target Absent,Critical,None,"[('q', 1.7941279859951464)]","['space', 1.298157679339056]",0.873,tone3,25,205
399,2010_005257.jpg, cat,,,,,20.04157457,low, cat,,No Target,Normal,None,Na,Na,None,None,26,206
413,2010_006076.jpg, dog,,,,,20.39097313,low, dog,,No Target,Normal,None,Na,Na,None,None,27,207
422,2011_000514.jpg, pottedplant,,,,,18.03153745,low, pottedplant, pottedplant,Target Present,Normal,None,"[('p', 1.6617512267039274)]",-999,None,None,28,208
334,2010_001370.jpg, dog,,,,,17.80742804,low, dog,,No Target,Normal,None,Na,Na,None,None,29,209
271,2009_002749.jpg, bottle,,,,,20.96364308,low, bottle,,No Target,Normal,None,Na,Na,None,None,30,210
442,2011_001432.jpg, bird,,,,,19.73559235,low, bird, bird,Target Present,Normal,None,"[('p', 1.5518979286935064)]",-999,None,None,31,211
22,2008_000339.jpg, bird,,,,,14.38243182,low, bird,,No Target,Normal,None,Na,Na,None,None,32,212
447,2011_001611.jpg, pottedplant,,,,,20.3935266,low, pottedplant,,No Target,Normal,None,Na,Na,None,None,33,213
109,2008_004036.jpg, person, motorbike,,,,19.44615669,low, person,,No Target,Normal,None,Na,Na,None,None,34,214
253,2009_001894.jpg, cat,,,,,19.10769655,low, cat,,No Target,Normal,None,Na,Na,None,None,35,215
225,2009_000742.jpg, bottle,,,,,16.39468003,low, bottle,,No Target,Normal,None,Na,Na,None,None,36,216
430,2011_001005.jpg, pottedplant, sofa,,,,18.96772267,low, pottedplant,,No Target,Critical,None,Na,Na,0.841,tone4,37,217
325,2010_000628.jpg, car,,,,,19.89235212,low, car,,No Target,Normal,None,Na,Na,None,None,38,218
289,2009_003962.jpg, bird,,,,,16.63718849,low, bird,,No Target,Normal,None,Na,Na,None,None,39,219
248,2009_001774.jpg, sofa, dog,,,,16.14256262,low, sofa,,No Target,Critical,None,Na,Na,0.082,tone2,40,220
265,2009_002567.jpg, bottle,,,,,19.93577352,low, bottle,,No Target,Normal,None,Na,Na,None,None,41,221
368,2010_003287.jpg, tvmonitor, chair, person,,,20.15519305,low, chair,,No Target,Normal,None,Na,Na,None,None,42,222
125,2008_004607.jpg, bottle,,,,,20.4657412,low, bottle, horse,Target Absent,Normal,None,"[('q', 1.7402071566539234)]",-999,None,None,43,223
14,2008_000193.jpg, car, person,,,,16.25909358,low, car,,No Target,Normal,None,Na,Na,None,None,44,224
69,2008_001934.jpg, horse,,,,,19.66113924,low, horse,,No Target,Normal,None,Na,Na,None,None,45,225
92,2008_002866.jpg, person, horse,,,,18.60877848,low, horse,,No Target,Critical,"[('space', 0.6824797218141612)]",Na,Na,0.152,tone1,46,226
249,2009_001782.jpg, car,,,,,18.87415623,low, car,,No Target,Normal,None,Na,Na,None,None,47,227
124,2008_004522.jpg, person,,,,,20.54328862,low, person,,No Target,Normal,None,Na,Na,None,None,48,228
152,2008_005748.jpg, dog,,,,,12.20210994,low, dog, horse,Target Absent,Normal,None,"[('q', 1.597777332397527)]",-999,None,None,49,229
445,2011_001591.jpg, person, boat,,,,17.69816713,low, boat,,No Target,Normal,None,Na,Na,None,None,50,230
476,2011_002911.jpg, bottle, dog, diningtable,,,21.03464691,low, bottle,,No Target,Normal,None,Na,Na,None,None,51,231
83,2008_002372.jpg, bottle,,,,,14.59333688,low, bottle,,No Target,Normal,None,Na,Na,None,None,52,232
38,2008_000734.jpg, person, sofa,,,,20.18533933,low, sofa,,No Target,Normal,None,Na,Na,None,None,53,233
243,2009_001470.jpg, sofa, dog,,,,19.18883419,low, dog,,No Target,Normal,None,Na,Na,None,None,54,234
378,2010_003746.jpg, car, dog, person,,,21.02015921,low, car,,No Target,Critical,"[('space', 0.31324212343315594)]",Na,Na,0.905,tone1,55,235
21,2008_000287.jpg, pottedplant,,,,,19.54965645,low, pottedplant,,No Target,Normal,None,Na,Na,None,None,56,236
193,2008_007923.jpg, person, bottle,,,,19.05734477,low, person,,No Target,Normal,None,Na,Na,None,None,57,237
112,2008_004166.jpg, horse,,,,,20.56778279,low, horse,,No Target,Normal,None,Na,Na,None,None,58,238
86,2008_002471.jpg, bird,,,,,20.79976233,low, bird,,No Target,Normal,None,Na,Na,None,None,59,239
259,2009_002182.jpg, person, horse,,,,29.8661241,high, horse, horse,Target Present,Normal,None,"[('p', 1.643047485355055)]",-999,None,None,0,240
188,2008_007629.jpg, aeroplane,,,,,31.1423085,high, aeroplane,,No Target,Normal,None,Na,Na,None,None,1,241
254,2009_001976.jpg, chair,,,,,33.76608333,high, chair,,No Target,Normal,None,Na,Na,None,None,2,242
339,2010_001586.jpg, person, train, sofa,,,31.65115644,high, sofa,,No Target,Normal,None,Na,Na,None,None,3,243
60,2008_001467.jpg, pottedplant, person, chair,,,30.03319736,high, pottedplant, horse,Target Absent,Normal,None,"[('q', 1.8756498413349618)]",-999,None,None,4,244
192,2008_007913.jpg, person, cat,,,,32.26510908,high, cat,,No Target,Normal,None,Na,Na,None,None,5,245
20,2008_000270.jpg, person, dog, sofa,,,29.93561839,high, sofa,,No Target,Normal,None,Na,Na,None,None,6,246
315,2009_005239.jpg, person, boat,,,,33.51757226,high, boat,,No Target,Normal,None,Na,Na,None,None,7,247
244,2009_001695.jpg, bicycle, bottle,,,,35.23814958,high, bottle,,No Target,Normal,None,Na,Na,None,None,8,248
217,2009_000405.jpg, bus, person, car,,,29.16002617,high, car,,No Target,Normal,None,Na,Na,None,None,9,249
440,2011_001283.jpg, sofa, person,,,,32.35902155,high, sofa, sofa,Target Present,Normal,None,"[('p', 1.7429192775525735)]",-999,None,None,10,250
433,2011_001056.jpg, person,,,,,31.21400965,high, person,,No Target,Normal,None,Na,Na,None,None,11,251
376,2010_003724.jpg, person, bird,,,,29.65738997,high, bird,,No Target,Normal,None,Na,Na,None,None,12,252
409,2010_005705.jpg, boat,,,,,30.07547412,high, boat, horse,Target Absent,Normal,None,"[('q', 1.8044632962773903)]",-999,None,None,13,253
61,2008_001580.jpg, boat,,,,,29.28810503,high, boat,,No Target,Normal,None,Na,Na,None,None,14,254
101,2008_003448.jpg, person, chair,,,,30.01632433,high, chair,,No Target,Normal,None,Na,Na,None,None,15,255
90,2008_002773.jpg, aeroplane, boat,,,,29.28734944,high, aeroplane,,No Target,Critical,"[('space', 0.3018151794967707)]",Na,Na,0.841,tone1,16,256
336,2010_001434.jpg, sofa, chair,,,,31.26054,high, chair,,No Target,Normal,None,Na,Na,None,None,17,257
180,2008_007378.jpg, chair, dog, diningtable,,,29.61144034,high, dog,,No Target,Normal,None,Na,Na,None,None,18,258
252,2009_001888.jpg, pottedplant, sofa,,,,28.81434209,high, pottedplant,,No Target,Normal,None,Na,Na,None,None,19,259
202,2008_008368.jpg, person, bicycle, car,,,31.8102479,high, car,,No Target,Normal,None,Na,Na,None,None,20,260
59,2008_001464.jpg, person, horse,,,,30.7567144,high, horse,,No Target,Normal,None,Na,Na,None,None,21,261
373,2010_003520.jpg, sofa, chair, diningtable,,,35.49231202,high, sofa,,No Target,Normal,None,Na,Na,None,None,22,262
472,2011_002641.jpg, person, chair, bottle,,,33.38111538,high, bottle,,No Target,Normal,None,Na,Na,None,None,23,263
467,2011_002542.jpg, person, diningtable, bottle,,,40.5533995,high, bottle,,No Target,Normal,None,Na,Na,None,None,24,264
475,2011_002879.jpg, sofa, tvmonitor,,,,29.90273721,high, sofa,,No Target,Normal,None,Na,Na,None,None,25,265
456,2011_001880.jpg, aeroplane,,,,,32.20276402,high, aeroplane, aeroplane,Target Present,Normal,None,"[('p', 1.6379493936983636)]",-999,None,None,26,266
30,2008_000495.jpg, tvmonitor, chair, bottle,,,32.17976917,high, bottle,,No Target,Normal,None,Na,Na,None,None,27,267
424,2011_000628.jpg, person, horse,,,,31.31059992,high, horse,,No Target,Normal,None,Na,Na,None,None,28,268
428,2011_000828.jpg, sofa, bottle, person,,,29.47971697,high, sofa,,No Target,Normal,None,Na,Na,None,None,29,269
285,2009_003705.jpg, person, aeroplane,,,,29.54730611,high, aeroplane,,No Target,Critical,None,Na,Na,0.287,tone4,30,270
50,2008_001182.jpg, person, dog,,,,32.23604822,high, dog,,No Target,Normal,None,Na,Na,None,None,31,271
464,2011_002239.jpg, person, dog,,,,31.31965347,high, dog,,No Target,Normal,None,Na,Na,None,None,32,272
160,2008_006295.jpg, pottedplant, tvmonitor, diningtable, bottle, person,33.94013437,high, bottle,,No Target,Normal,None,Na,Na,None,None,33,273
196,2008_008029.jpg, person, sofa,,,,31.11980531,high, sofa,,No Target,Critical,"[('space', 0.8390503214905038)]",Na,Na,0.347,tone3,34,274
73,2008_002039.jpg, person,,,,,29.72640207,high, person,,No Target,Normal,None,Na,Na,None,None,35,275
215,2009_000247.jpg, person, diningtable, bottle,,,30.91062411,high, bottle,,No Target,Normal,None,Na,Na,None,None,36,276
371,2010_003419.jpg, bird,,,,,28.6670652,high, bird,,No Target,Critical,"[('space', 0.5851210533073754)]",Na,Na,0.082,tone3,37,277
96,2008_003180.jpg, dog,,,,,31.53785713,high, dog,,No Target,Normal,None,Na,Na,None,None,38,278
182,2008_007423.jpg, bird,,,,,33.64739801,high, bird,,No Target,Normal,None,Na,Na,None,None,39,279
91,2008_002835.jpg, person, horse,,,,31.84266058,high, horse,,No Target,Critical,"[('space', 0.1459171219394193)]",Na,Na,0.76,tone2,40,280
119,2008_004318.jpg, person, sofa,,,,29.75735845,high, sofa,,No Target,Normal,None,Na,Na,None,None,41,281
439,2011_001221.jpg, pottedplant, person, chair, diningtable, boat,35.38363354,high, chair,,No Target,Normal,None,Na,Na,None,None,42,282
427,2011_000824.jpg, cat,,,,,31.77985882,high, cat,,No Target,Critical,"[('space', 0.7181643676958629)]",Na,Na,0.345,tone3,43,283
344,2010_001856.jpg, person, horse,,,,35.66913246,high, horse,,No Target,Normal,None,Na,Na,None,None,44,284
98,2008_003283.jpg, person, horse,,,,30.08804593,high, horse,,No Target,Normal,None,Na,Na,None,None,45,285
406,2010_005606.jpg, person, sofa, cat,,,29.51418979,high, cat, pottedplant,Target Absent,Normal,None,"[('q', 1.9841289752730518)]",-999,None,None,46,286
68,2008_001929.jpg, person,,,,,38.90283281,high, person,,No Target,Normal,None,Na,Na,None,None,47,287
293,2009_004125.jpg, person, boat,,,,31.87043919,high, boat,,No Target,Normal,None,Na,Na,None,None,48,288
26,2008_000418.jpg, person, chair, diningtable,,,28.87770855,high, chair,,No Target,Normal,None,Na,Na,None,None,49,289
240,2009_001345.jpg, person, aeroplane,,,,28.99541661,high, aeroplane,,No Target,Critical,"[('space', 0.32029397987935226)]",Na,Na,0.886,tone1,50,290
132,2008_004892.jpg, person, horse,,,,31.04635209,high, horse,,No Target,Normal,None,Na,Na,None,None,51,291
65,2008_001784.jpg, pottedplant, person,,,,29.50643156,high, pottedplant,,No Target,Normal,None,Na,Na,None,None,52,292
398,2010_005239.jpg, tvmonitor, cat,,,,33.31955031,high, cat,,No Target,Normal,None,Na,Na,None,None,53,293
178,2008_007250.jpg, bird,,,,,31.89212551,high, bird,,No Target,Normal,None,Na,Na,None,None,54,294
450,2011_001769.jpg, person, chair, bottle,,,30.2142954,high, chair,,No Target,Normal,None,Na,Na,None,None,55,295
219,2009_000466.jpg, cat,,,,,30.95401072,high, cat,,No Target,Critical,"[('space', 0.2293807680325699)]",Na,Na,0.636,tone4,56,296
145,2008_005472.jpg, person, car,,,,28.83974175,high, car,,No Target,Normal,None,Na,Na,None,None,57,297
194,2008_007949.jpg, chair, diningtable,,,,38.0925597,high, chair,,No Target,Normal,None,Na,Na,None,None,58,298
284,2009_003646.jpg, tvmonitor, person, bicycle, sofa,,38.21890595,high, sofa,,No Target,Critical,None,Na,Na,0.995,tone1,59,299
29,2008_000491.jpg, pottedplant,,,,,15.06948341,low, pottedplant,,No Target,Normal,None,Na,Na,None,None,0,300
453,2011_001825.jpg, horse,,,,,20.50284734,low, horse,,No Target,Normal,None,Na,Na,None,None,1,301
77,2008_002182.jpg, cat,,,,,16.26490692,low, cat,,No Target,Normal,None,Na,Na,None,None,2,302
246,2009_001746.jpg, sofa,,,,,16.30002293,low, sofa, boat,Target Absent,Critical,"[('space', 0.9635185100196395)]","[('q', 1.699424134028959)]",-999,0.42,tone3,3,303
326,2010_000750.jpg, pottedplant,,,,,11.90221234,low, pottedplant,,No Target,Normal,None,Na,Na,None,None,4,304
76,2008_002145.jpg, person,,,,,18.87955753,low, person,,No Target,Normal,None,Na,Na,None,None,5,305
224,2009_000716.jpg, cat,,,,,20.53735354,low, cat,,No Target,Normal,None,Na,Na,None,None,6,306
17,2008_000236.jpg, person,,,,,19.27672634,low, person, person,Target Present,Normal,None,"[('p', 1.528784603207896)]",-999,None,None,7,307
437,2011_001173.jpg, sofa, cat,,,,20.43410382,low, cat,,No Target,Normal,None,Na,Na,None,None,8,308
313,2009_004984.jpg, bicycle, bottle,,,,18.89379801,low, bottle,,No Target,Normal,None,Na,Na,None,None,9,309
343,2010_001836.jpg, aeroplane,,,,,18.21242681,low, aeroplane,,No Target,Normal,None,Na,Na,None,None,10,310
358,2010_002661.jpg, pottedplant,,,,,15.88057161,low, pottedplant,,No Target,Normal,None,Na,Na,None,None,11,311
302,2009_004582.jpg, sofa, person,,,,20.38268488,low, sofa,,No Target,Normal,None,Na,Na,None,None,12,312
117,2008_004269.jpg, sofa, person,,,,20.98329806,low, sofa,,No Target,Normal,None,Na,Na,None,None,13,313
301,2009_004483.jpg, dog,,,,,18.01939275,low, dog,,No Target,Critical,None,Na,Na,0.523,tone4,14,314
9,2008_000141.jpg, person, horse,,,,19.2853679,low, horse,,No Target,Normal,None,Na,Na,None,None,15,315
361,2010_002956.jpg, bottle,,,,,16.59887486,low, bottle,,No Target,Normal,None,Na,Na,None,None,16,316
103,2008_003659.jpg, cat,,,,,15.63366674,low, cat, bird,Target Absent,Normal,None,"[('q', 1.7218449606516515)]",-999,None,None,17,317
401,2010_005391.jpg, dog,,,,,18.6088037,low, dog,,No Target,Normal,None,Na,Na,None,None,18,318
39,2008_000777.jpg, person,,,,,20.3258581,low, person,,No Target,Normal,None,Na,Na,None,None,19,319
342,2010_001829.jpg, horse,,,,,19.23440134,low, horse,,No Target,Critical,"[('space', 0.1594905557576567)]",Na,Na,0.723,tone2,20,320
337,2010_001441.jpg, bird,,,,,12.28655099,low, bird,,No Target,Normal,None,Na,Na,None,None,21,321
184,2008_007511.jpg, sofa,,,,,16.41609668,low, sofa,,No Target,Normal,None,Na,Na,None,None,22,322
305,2009_004639.jpg, cat,,,,,20.83776855,low, cat,,No Target,Critical,"[('space', 0.16151245856599417)]",Na,Na,0.698,tone1,23,323
223,2009_000647.jpg, dog,,,,,18.05503275,low, dog,,No Target,Normal,None,Na,Na,None,None,24,324
166,2008_006546.jpg, dog,,,,,15.67179749,low, dog,,No Target,Normal,None,Na,Na,None,None,25,325
454,2011_001834.jpg, chair,,,,,13.72743874,low, chair,,No Target,Normal,None,Na,Na,None,None,26,326
3,2008_000059.jpg, person, dog,,,,19.02871536,low, person,,No Target,Critical,"[('space', 0.042047139533679)]",Na,Na,0.561,tone2,27,327
169,2008_006837.jpg, chair, dog, diningtable,,,18.2062639,low, chair,,No Target,Normal,None,Na,Na,None,None,28,328
267,2009_002594.jpg, bottle,,,,,19.09623736,low, bottle,,No Target,Normal,None,Na,Na,None,None,29,329
381,2010_003911.jpg, boat,,,,,20.08430254,low, boat,,No Target,Critical,"[('space', 0.4862738971278304)]",Na,Na,0.046,tone1,30,330
88,2008_002504.jpg, boat,,,,,20.47066395,low, boat,,No Target,Normal,None,Na,Na,None,None,31,331
168,2008_006784.jpg, sofa,,,,,17.05590937,low, sofa,,No Target,Normal,None,Na,Na,None,None,32,332
97,2008_003203.jpg, pottedplant, person,,,,20.51511763,low, pottedplant,,No Target,Normal,None,Na,Na,None,None,33,333
231,2009_000937.jpg, sofa,,,,,20.50651053,low, sofa,,No Target,Critical,"[('space', 0.08550522054429166)]",Na,Na,0.724,tone1,34,334
24,2008_000400.jpg, bird,,,,,19.61954485,low, bird,,No Target,Normal,None,Na,Na,None,None,35,335
460,2011_002038.jpg, chair,,,,,19.16151497,low, chair,,No Target,Normal,None,Na,Na,None,None,36,336
113,2008_004171.jpg, pottedplant,,,,,20.58416257,low, pottedplant,,No Target,Normal,None,Na,Na,None,None,37,337
35,2008_000645.jpg, person,,,,,10.96294835,low, person,,No Target,Normal,None,Na,Na,None,None,38,338
143,2008_005465.jpg, bird,,,,,16.67271324,low, bird,,No Target,Normal,None,Na,Na,None,None,39,339
174,2008_007012.jpg, dog,,,,,9.061016516,low, dog, dog,Target Present,Normal,"[('space', 0.7251369673758745)]","[('p', 1.6531190815803711)]",-999,None,None,40,340
151,2008_005735.jpg, cat,,,,,13.68599365,low, cat,,No Target,Normal,None,Na,Na,None,None,41,341
130,2008_004702.jpg, person, chair, dog,,,18.94630701,low, chair,,No Target,Normal,None,Na,Na,None,None,42,342
6,2008_000112.jpg, bottle, cat,,,,21.25982976,low, bottle, bottle,Target Present,Normal,None,"[('p', 2.0219598259427585)]",-999,None,None,43,343
45,2008_000952.jpg, car,,,,,19.759256,low, car,,No Target,Normal,None,Na,Na,None,None,44,344
275,2009_003084.jpg, boat,,,,,20.07471587,low, boat,,No Target,Normal,None,Na,Na,None,None,45,345
236,2009_001299.jpg, person, chair,,,,19.77080876,low, chair, aeroplane,Target Absent,Critical,"[('space', 0.8089125087935827)]","[('q', 1.656856408691965)]",-999,0.347,tone1,46,346
352,2010_002379.jpg, pottedplant,,,,,19.89572012,low, pottedplant,,No Target,Normal,None,Na,Na,None,None,47,347
385,2010_004223.jpg, person, chair,,,,16.60680658,low, chair,,No Target,Normal,None,Na,Na,None,None,48,348
443,2011_001543.jpg, chair, dog,,,,14.96914197,low, chair,,No Target,Critical,"[('space', 0.841779833259352)]",Na,Na,0.345,tone1,49,349
57,2008_001395.jpg, person,,,,,19.97982463,low, person,,No Target,Normal,None,Na,Na,None,None,50,350
402,2010_005409.jpg, car, bottle, person,,,19.55873743,low, bottle,,No Target,Normal,None,Na,Na,None,None,51,351
470,2011_002558.jpg, person, boat,,,,16.14615478,low, boat,,No Target,Normal,None,Na,Na,None,None,52,352
99,2008_003288.jpg, person,,,,,16.331918,low, person,,No Target,Normal,None,Na,Na,None,None,53,353
216,2009_000304.jpg, chair, cat,,,,18.18987643,low, chair,,No Target,Normal,None,Na,Na,None,None,54,354
139,2008_005309.jpg, cat,,,,,20.22587911,low, cat,,No Target,Normal,None,Na,Na,None,None,55,355
270,2009_002711.jpg, car, person,,,,17.85630566,low, car,,No Target,Normal,None,Na,Na,None,None,56,356
144,2008_005467.jpg, dog,,,,,20.01703476,low, dog,,No Target,Normal,None,Na,Na,None,None,57,357
448,2011_001613.jpg, person, boat,,,,17.51694148,low, boat,,No Target,Normal,None,Na,Na,None,None,58,358
95,2008_003135.jpg, pottedplant,,,,,20.73071186,low, pottedplant,,No Target,Normal,None,Na,Na,None,None,59,359
261,2009_002374.jpg, chair,,,,,20.13855957,low, chair,,No Target,Normal,None,Na,Na,None,None,0,360
159,2008_006276.jpg, sofa,,,,,12.39022978,low, sofa,,No Target,Normal,None,Na,Na,None,None,1,361
468,2011_002548.jpg, bird,,,,,17.81068988,low, bird,,No Target,Normal,None,Na,Na,None,None,2,362
54,2008_001320.jpg, person, chair, diningtable,,,20.00529885,low, chair, chair,Target Present,Normal,None,"[('p', 1.641153020580532)]",-999,None,None,3,363
316,2009_005308.jpg, bottle,,,,,21.11630175,low, bottle,,No Target,Normal,None,Na,Na,None,None,4,364
322,2010_000295.jpg, aeroplane,,,,,18.64762782,low, aeroplane,,No Target,Normal,None,Na,Na,None,None,5,365
133,2008_004907.jpg, boat,,,,,16.58037434,low, boat,,No Target,Normal,None,Na,Na,None,None,6,366
155,2008_006034.jpg, aeroplane,,,,,20.01272221,low, aeroplane,,No Target,Critical,"[('space', 0.5938469950997387)]",Na,Na,0.12,tone3,7,367
205,2008_008533.jpg, horse,,,,,19.2079564,low, horse,,No Target,Normal,None,Na,Na,None,None,8,368
269,2009_002704.jpg, cat,,,,,14.70154771,low, cat,,No Target,Normal,None,Na,Na,None,None,9,369
386,2010_004231.jpg, chair, diningtable,,,,15.83070894,low, chair,,No Target,Normal,None,Na,Na,None,None,10,370
397,2010_005217.jpg, bird,,,,,20.82173163,low, bird,,No Target,Normal,None,Na,Na,None,None,11,371
466,2011_002453.jpg, pottedplant,,,,,19.24976137,low, pottedplant,,No Target,Normal,None,Na,Na,None,None,12,372
58,2008_001439.jpg, chair,,,,,19.87713164,low, chair,,No Target,Normal,None,Na,Na,None,None,13,373
157,2008_006092.jpg, car,,,,,16.4886037,low, car, car,Target Present,Normal,None,"[('p', 1.5803314358272473)]",-999,None,None,14,374
280,2009_003309.jpg, aeroplane,,,,,19.09599574,low, aeroplane,,No Target,Normal,None,Na,Na,None,None,15,375
191,2008_007816.jpg, horse,,,,,21.01947615,low, horse,,No Target,Normal,None,Na,Na,None,None,16,376
347,2010_001995.jpg, bird,,,,,18.3319521,low, bird,,No Target,Normal,None,Na,Na,None,None,17,377
320,2010_000132.jpg, pottedplant,,,,,19.90627663,low, pottedplant,,No Target,Normal,None,Na,Na,None,None,18,378
7,2008_000119.jpg, person, horse,,,,19.18754607,low, horse, cat,Target Absent,Normal,None,"[('q', 1.7251928462501382)]",-999,None,None,19,379
307,2009_004713.jpg, bird,,,,,20.01239363,low, bird,,No Target,Normal,None,Na,Na,None,None,20,380
189,2008_007704.jpg, chair, diningtable, bottle,,,20.03811988,low, bottle,,No Target,Normal,None,Na,Na,None,None,21,381
388,2010_004311.jpg, dog,,,,,16.89110622,low, dog,,No Target,Normal,None,Na,Na,None,None,22,382
62,2008_001617.jpg, person, chair,,,,20.22413954,low, chair,,No Target,Critical,"[('space', 0.8657649831657181)]",Na,Na,0.43,tone1,23,383
258,2009_002137.jpg, bottle,,,,,18.60351893,low, bottle,,No Target,Normal,None,Na,Na,None,None,24,384
366,2010_003259.jpg, aeroplane,,,,,18.73147009,low, aeroplane,,No Target,Normal,None,Na,Na,None,None,25,385
438,2011_001198.jpg, sofa, dog,,,,16.6984986,low, sofa, sofa,Target Present,Normal,None,"[('p', 1.6363896319599007)]",-999,None,None,26,386
277,2009_003181.jpg, person,,,,,20.71653544,low, person,,No Target,Normal,None,Na,Na,None,None,27,387
321,2010_000151.jpg, bird,,,,,20.12814087,low, bird,,No Target,Normal,None,Na,Na,None,None,28,388
331,2010_001036.jpg, person, boat,,,,19.19481595,low, boat,,No Target,Critical,None,Na,Na,0.231,tone4,29,389
370,2010_003329.jpg, bottle,,,,,20.96577532,low, bottle,,No Target,Normal,None,Na,Na,None,None,30,390
291,2009_004016.jpg, dog,,,,,19.65229661,low, dog,,No Target,Normal,None,Na,Na,None,None,31,391
354,2010_002436.jpg, bird,,,,,20.65943839,low, bird,,No Target,Critical,"[('space', 0.8564343521575211)]",Na,Na,0.345,tone4,32,392
241,2009_001406.jpg, person, boat,,,,19.90161689,low, boat,,No Target,Normal,None,Na,Na,None,None,33,393
312,2009_004888.jpg, person, boat,,,,16.65124246,low, boat,,No Target,Normal,None,Na,Na,None,None,34,394
392,2010_004791.jpg, aeroplane,,,,,20.12076124,low, aeroplane,,No Target,Normal,None,Na,Na,None,None,35,395
203,2008_008467.jpg, aeroplane,,,,,11.63773974,low, aeroplane,,No Target,Normal,None,Na,Na,None,None,36,396
2,2008_000037.jpg, aeroplane,,,,,12.091823,low, aeroplane, sofa,Target Absent,Critical,"[('space', 0.5833280828082934)]","[('p', 1.6072961269383086)]",-999,0.14,tone4,37,397
163,2008_006452.jpg, dog,,,,,16.13745812,low, dog,,No Target,Normal,None,Na,Na,None,None,38,398
137,2008_005214.jpg, pottedplant,,,,,21.2176699,low, pottedplant,,No Target,Normal,None,Na,Na,None,None,39,399
308,2009_004737.jpg, chair,,,,,16.98544233,low, chair,,No Target,Critical,"[('space', 0.18477888074994553)]",Na,Na,0.724,tone2,40,400
64,2008_001694.jpg, pottedplant, sofa, chair,,,18.5118878,low, sofa,,No Target,Normal,None,Na,Na,None,None,41,401
46,2008_000972.jpg, person, sofa,,,,20.70787778,low, person,,No Target,Normal,None,Na,Na,None,None,42,402
274,2009_002998.jpg, sofa,,,,,20.95630729,low, sofa,,No Target,Normal,None,Na,Na,None,None,43,403
250,2009_001810.jpg, person, bottle,,,,19.61526987,low, bottle,,No Target,Critical,"[('space', 0.2252126604435034)]",Na,Na,0.762,tone4,44,404
403,2010_005437.jpg, car,,,,,20.48716673,low, car,,No Target,Normal,None,Na,Na,None,None,45,405
235,2009_001279.jpg, cat,,,,,17.88110457,low, cat,,No Target,Normal,None,Na,Na,None,None,46,406
264,2009_002521.jpg, bottle,,,,,20.83252155,low, bottle,,No Target,Critical,"[('space', 0.7014505983752315)]",Na,Na,0.141,tone1,47,407
141,2008_005443.jpg, aeroplane,,,,,17.39728912,low, aeroplane,,No Target,Normal,None,Na,Na,None,None,48,408
257,2009_002123.jpg, pottedplant, person,,,,19.66447615,low, pottedplant,,No Target,Normal,None,Na,Na,None,None,49,409
127,2008_004624.jpg, horse,,,,,13.8796341,low, horse,,No Target,Normal,None,Na,Na,None,None,50,410
389,2010_004425.jpg, sofa, cat,,,,18.28847734,low, sofa,,No Target,Normal,None,Na,Na,None,None,51,411
156,2008_006072.jpg, bottle,,,,,18.25990094,low, bottle,,No Target,Normal,None,Na,Na,None,None,52,412
118,2008_004270.jpg, person, sofa,,,,19.24403588,low, person, pottedplant,Target Absent,Critical,None,"[('q', 1.6017353240313241)]","['space', 1.105790676047036]",0.636,tone2,53,413
198,2008_008083.jpg, person, boat,,,,18.64245043,low, boat,,No Target,Normal,None,Na,Na,None,None,54,414
89,2008_002704.jpg, car,,,,,19.43993938,low, car,,No Target,Normal,None,Na,Na,None,None,55,415
134,2008_004911.jpg, horse,,,,,19.1389758,low, horse,,No Target,Normal,None,Na,Na,None,None,56,416
111,2008_004138.jpg, aeroplane,,,,,18.76412105,low, aeroplane,,No Target,Normal,None,Na,Na,None,None,57,417
387,2010_004307.jpg, person, bicycle,,,,21.2386983,low, person,,No Target,Normal,None,Na,Na,None,None,58,418
421,2011_000481.jpg, aeroplane,,,,,15.75949207,low, aeroplane,,No Target,Normal,None,Na,Na,None,None,59,419
212,2009_000157.jpg, tvmonitor, chair, person,,,30.89333834,high, chair, bottle,Target Absent,Normal,None,"[('q', 1.7509510099116596)]",-999,None,None,0,420
255,2009_002001.jpg, person, aeroplane,,,,34.54414482,high, aeroplane,,No Target,Normal,None,Na,Na,None,None,1,421
227,2009_000906.jpg, car,,,,,29.05478148,high, car,,No Target,Normal,None,Na,Na,None,None,2,422
172,2008_006903.jpg, boat,,,,,31.79381279,high, boat,,No Target,Normal,None,Na,Na,None,None,3,423
346,2010_001992.jpg, bird,,,,,28.99760488,high, bird,,No Target,Normal,None,Na,Na,None,None,4,424
170,2008_006864.jpg, pottedplant, sofa, person,,,29.72325552,high, sofa,,No Target,Critical,"[('space', 0.1345192578228307)]",Na,Na,0.686,tone1,5,425
56,2008_001333.jpg, sofa, chair, bottle, person,,29.05176679,high, sofa,,No Target,Normal,None,Na,Na,None,None,6,426
226,2009_000848.jpg, tvmonitor, bottle,,,,30.12607109,high, bottle,,No Target,Normal,None,Na,Na,None,None,7,427
309,2009_004794.jpg, pottedplant, person, bottle, diningtable,,36.66558282,high, bottle,,No Target,Normal,None,Na,Na,None,None,8,428
462,2011_002098.jpg, dog, bottle,,,,41.9971447,high, dog,,No Target,Critical,"[('space', 0.07933402649359778)]",Na,Na,0.723,tone3,9,429
294,2009_004154.jpg, person, chair, diningtable, bottle,,29.62291428,high, person,,No Target,Normal,None,Na,Na,None,None,10,430
150,2008_005702.jpg, horse,,,,,29.28123751,high, horse,,No Target,Normal,None,Na,Na,None,None,11,431
379,2010_003861.jpg, pottedplant, person, chair, sofa, cat,29.7271296,high, cat,,No Target,Normal,None,Na,Na,None,None,12,432
211,2009_000120.jpg, boat,,,,,30.80608913,high, boat,,No Target,Critical,"[('space', 0.9613463614732609)]",Na,Na,0.537,tone3,13,433
452,2011_001800.jpg, person, aeroplane,,,,30.95304329,high, aeroplane,,No Target,Normal,None,Na,Na,None,None,14,434
177,2008_007143.jpg, boat,,,,,33.49461342,high, boat,,No Target,Normal,None,Na,Na,None,None,15,435
183,2008_007488.jpg, bus, motorbike, car, person,,31.08966391,high, car,,No Target,Normal,None,Na,Na,None,None,16,436
220,2009_000488.jpg, pottedplant, tvmonitor, cat,,,31.6704472,high, pottedplant,,No Target,Normal,None,Na,Na,None,None,17,437
74,2008_002079.jpg, person, bottle, diningtable,,,33.02206681,high, bottle,,No Target,Critical,"[('space', 0.10206788883806439)]",Na,Na,0.662,tone2,18,438
201,2008_008357.jpg, person, bicycle, car,,,32.10863486,high, car,,No Target,Normal,None,Na,Na,None,None,19,439
429,2011_001001.jpg, person, bird, boat,,,31.91340974,high, bird,,No Target,Normal,None,Na,Na,None,None,20,440
469,2011_002555.jpg, person, horse,,,,29.26546246,high, horse,,No Target,Normal,None,Na,Na,None,None,21,441
25,2008_000414.jpg, boat,,,,,35.94715,high, boat,,No Target,Normal,None,Na,Na,None,None,22,442
47,2008_000987.jpg, person,,,,,31.64764727,high, person, person,Target Present,Normal,None,"[('p', 1.918510075440281)]","['space', 1.4545560808619484]",None,None,23,443
436,2011_001139.jpg, chair, bird, diningtable,,,29.36175572,high, bird,,No Target,Normal,None,Na,Na,None,None,24,444
434,2011_001097.jpg, boat,,,,,33.0359363,high, boat,,No Target,Normal,None,Na,Na,None,None,25,445
51,2008_001210.jpg, cat,,,,,29.24697617,high, cat,,No Target,Critical,"[('space', 0.5654143432475394)]",Na,Na,0.118,tone3,26,446
360,2010_002789.jpg, sofa, cat,,,,33.20892925,high, cat,,No Target,Normal,None,Na,Na,None,None,27,447
288,2009_003951.jpg, person, train,,,,28.89001495,high, person,,No Target,Normal,None,Na,Na,None,None,28,448
136,2008_005197.jpg, person, dog,,,,33.64296693,high, dog,,No Target,Normal,None,Na,Na,None,None,29,449
87,2008_002482.jpg, person, boat,,,,28.94552801,high, boat, boat,Target Present,Critical,"[('space', 0.8935792611882789)]","[('p', 1.6135460075602168)]",-999,0.394,tone3,30,450
18,2008_000251.jpg, car, aeroplane,,,,35.87217941,high, aeroplane,,No Target,Normal,None,Na,Na,None,None,31,451
187,2008_007613.jpg, cat,,,,,31.07255302,high, cat,,No Target,Normal,None,Na,Na,None,None,32,452
66,2008_001862.jpg, pottedplant, person, chair, dog, bottle,31.05804957,high, dog, dog,Target Present,Normal,None,"[('p', 1.5844696083149756)]",-999,None,None,33,453
350,2010_002278.jpg, person, cat,,,,29.86799404,high, cat,,No Target,Normal,None,Na,Na,None,None,34,454
260,2009_002306.jpg, boat,,,,,30.0652664,high, boat,,No Target,Normal,None,Na,Na,None,None,35,455
419,2011_000427.jpg, sofa, diningtable, person,,,40.50710337,high, sofa,,No Target,Critical,"[('space', 0.842417593630671)]",Na,Na,0.841,tone3,36,456
283,2009_003351.jpg, pottedplant, person, chair, motorbike, boat,31.5804899,high, boat,,No Target,Normal,None,Na,Na,None,None,37,457
49,2008_001155.jpg, chair, diningtable,,,,33.69412787,high, chair,,No Target,Normal,None,Na,Na,None,None,38,458
199,2008_008210.jpg, person, bicycle, car,,,31.5779064,high, car, bird,Target Absent,Normal,None,"[('q', 2.2306505868546083)]",-999,None,None,39,459
19,2008_000262.jpg, boat,,,,,38.409555,high, boat,,No Target,Normal,None,Na,Na,None,None,40,460
12,2008_000191.jpg, person, bicycle, boat,,,34.31905161,high, boat,,No Target,Normal,None,Na,Na,None,None,41,461
93,2008_002966.jpg, person, boat,,,,31.41385755,high, boat,,No Target,Critical,"[('space', 0.11847546475473791)]",Na,Na,0.674,tone2,42,462
79,2008_002195.jpg, person, aeroplane,,,,30.48036176,high, aeroplane,,No Target,Normal,None,Na,Na,None,None,43,463
324,2010_000536.jpg, cat,,,,,31.54166437,high, cat,,No Target,Normal,None,Na,Na,None,None,44,464
71,2008_002032.jpg, person, chair, diningtable,,,32.01182729,high, person,,No Target,Critical,"[('space', 0.9466428060040926)]",Na,Na,0.347,tone3,45,465
286,2009_003725.jpg, person, horse, car,,,30.12263629,high, car,,No Target,Normal,None,Na,Na,None,None,46,466
332,2010_001099.jpg, tvmonitor, dog,,,,31.58802401,high, dog,,No Target,Normal,None,Na,Na,None,None,47,467
369,2010_003297.jpg, person, horse,,,,31.96963432,high, horse,,No Target,Normal,None,Na,Na,None,None,48,468
209,2009_000021.jpg, car, person,,,,29.00835902,high, car,,No Target,Normal,None,Na,Na,None,None,49,469
380,2010_003864.jpg, pottedplant, sofa, chair, diningtable, tvmonitor,31.00753792,high, pottedplant,,No Target,Normal,None,Na,Na,None,None,50,470
273,2009_002850.jpg, person, bottle,,,,41.29008548,high, bottle, dog,Target Absent,Normal,None,"[('q', 1.8156889622405288)]",-999,None,None,51,471
110,2008_004100.jpg, car, aeroplane, person,,,31.81214007,high, aeroplane,,No Target,Normal,None,Na,Na,None,None,52,472
300,2009_004414.jpg, aeroplane,,,,,35.97296008,high, aeroplane,,No Target,Normal,None,Na,Na,None,None,53,473
135,2008_005178.jpg, person, dog,,,,29.07343452,high, dog,,No Target,Normal,None,Na,Na,None,None,54,474
8,2008_000140.jpg, boat,,,,,41.70023312,high, boat,,No Target,Normal,None,Na,Na,None,None,55,475
317,2010_000020.jpg, person, dog,,,,30.51924458,high, dog,,No Target,Normal,None,Na,Na,None,None,56,476
278,2009_003198.jpg, pottedplant, chair, diningtable,,,29.96856146,high, pottedplant,,No Target,Normal,None,Na,Na,None,None,57,477
310,2009_004841.jpg, cat,,,,,28.68743792,high, cat,,No Target,Normal,None,Na,Na,None,None,58,478
164,2008_006461.jpg, bird,,,,,31.18243026,high, bird,,No Target,Normal,None,Na,Na,None,None,59,479
