,Image Name,Cat. 1,Cat. 2,Cat. 3,Cat. 4,Cat. 5,True Skill Rating,Load,Exemplar of,To be asked,Trial Type,Audio,RT to TO,RT VS,RT to TO,Sound Onset,Sound Hz,Trial N.,trial_n
84,2008_002379.jpg, pottedplant, chair, diningtable,,,17.13857605,low, pottedplant,,No Target,Normal,None,Na,Na,None,None,0,0
265,2009_002567.jpg, bottle,,,,,19.93577352,low, bottle,,No Target,Critical,"[('space', 9.750292520038784e-05)]",Na,Na,0.424,tone4,1,1
39,2008_000777.jpg, person,,,,,20.3258581,low, person,,No Target,Normal,None,Na,Na,None,None,2,2
302,2009_004582.jpg, sofa, person,,,,20.38268488,low, sofa,,No Target,Normal,None,Na,Na,None,None,3,3
251,2009_001837.jpg, horse,,,,,19.27378311,low, horse,,No Target,Normal,None,Na,Na,None,None,4,4
271,2009_002749.jpg, bottle,,,,,20.96364308,low, bottle,,No Target,Normal,None,Na,Na,None,None,5,5
198,2008_008083.jpg, person, boat,,,,18.64245043,low, boat,,No Target,Critical,"[('space', 0.19599827459751396)]",Na,Na,0.735,tone4,6,6
479,2011_003098.jpg, dog,,,,,14.52660239,low, dog,,No Target,Normal,None,Na,Na,None,None,7,7
253,2009_001894.jpg, cat,,,,,19.10769655,low, cat,,No Target,Normal,None,Na,Na,None,None,8,8
372,2010_003453.jpg, car,,,,,17.7316961,low, car,,No Target,Critical,"[('space', 0.1343262476439122)]",Na,Na,0.71,tone1,9,9
138,2008_005251.jpg, person,,,,,18.43977255,low, person,,No Target,Normal,None,Na,Na,None,None,10,10
210,2009_000087.jpg, sofa,,,,,19.8923897,low, sofa,,No Target,Normal,None,Na,Na,None,None,11,11
453,2011_001825.jpg, horse,,,,,20.50284734,low, horse, aeroplane,Target Absent,Critical,None,"[('q', 2.9464366813990637)]","['space', 1.4585166383621981]",0.984,tone4,12,12
370,2010_003329.jpg, bottle,,,,,20.96577532,low, bottle,,No Target,Normal,None,Na,Na,None,None,13,13
267,2009_002594.jpg, bottle,,,,,19.09623736,low, bottle,,No Target,Normal,None,Na,Na,None,None,14,14
241,2009_001406.jpg, person, boat,,,,19.90161689,low, boat,,No Target,Normal,None,Na,Na,None,None,15,15
131,2008_004771.jpg, aeroplane,,,,,18.79588987,low, aeroplane, aeroplane,Target Present,Normal,None,"[('p', 1.9106228868986364)]",-999,None,None,16,16
208,2008_008714.jpg, sheep, dog,,,,20.07817344,low, dog,,No Target,Normal,None,Na,Na,None,None,17,17
256,2009_002120.jpg, car,,,,,19.86595411,low, car,,No Target,Normal,None,Na,Na,None,None,18,18
9,2008_000141.jpg, person, horse,,,,19.2853679,low, horse,,No Target,Normal,None,Na,Na,None,None,19,19
466,2011_002453.jpg, pottedplant,,,,,19.24976137,low, pottedplant,,No Target,Normal,None,Na,Na,None,None,20,20
386,2010_004231.jpg, chair, diningtable,,,,15.83070894,low, chair,,No Target,Normal,None,Na,Na,None,None,21,21
470,2011_002558.jpg, person, boat,,,,16.14615478,low, boat,,No Target,Critical,"[('space', 0.3903814787772717)]",Na,Na,0.977,tone1,22,22
335,2010_001417.jpg, cat,,,,,14.06671444,low, cat,,No Target,Normal,None,Na,Na,None,None,23,23
117,2008_004269.jpg, sofa, person,,,,20.98329806,low, sofa,,No Target,Normal,None,Na,Na,None,None,24,24
326,2010_000750.jpg, pottedplant,,,,,11.90221234,low, pottedplant,,No Target,Normal,None,Na,Na,None,None,25,25
130,2008_004702.jpg, person, chair, dog,,,18.94630701,low, chair,,No Target,Normal,"[('space', 0.5686980821847101)]",Na,Na,None,None,26,26
375,2010_003592.jpg, aeroplane,,,,,11.64066234,low, aeroplane,,No Target,Normal,None,Na,Na,None,None,27,27
367,2010_003280.jpg, person, horse,,,,20.30683532,low, horse,,No Target,Normal,None,Na,Na,None,None,28,28
83,2008_002372.jpg, bottle,,,,,14.59333688,low, bottle, dog,Target Absent,Normal,None,"[('p', 2.7469833249997464)]",-999,None,None,29,29
342,2010_001829.jpg, horse,,,,,19.23440134,low, horse,,No Target,Normal,None,Na,Na,None,None,30,30
421,2011_000481.jpg, aeroplane,,,,,15.75949207,low, aeroplane,,No Target,Normal,None,Na,Na,None,None,31,31
264,2009_002521.jpg, bottle,,,,,20.83252155,low, bottle, bottle,Target Present,Normal,None,"[('p', 2.6168497032340383)]",-999,None,None,32,32
124,2008_004522.jpg, person,,,,,20.54328862,low, person,,No Target,Normal,None,Na,Na,None,None,33,33
3,2008_000059.jpg, person, dog,,,,19.02871536,low, person,,No Target,Normal,None,Na,Na,None,None,34,34
120,2008_004414.jpg, car,,,,,20.49470892,low, car,,No Target,Normal,None,Na,Na,None,None,35,35
163,2008_006452.jpg, dog,,,,,16.13745812,low, dog,,No Target,Critical,"[('space', 0.11174120556825073)]",Na,Na,0.704,tone4,36,36
263,2009_002415.jpg, chair, diningtable,,,,19.90451448,low, chair,,No Target,Normal,None,Na,Na,None,None,37,37
191,2008_007816.jpg, horse,,,,,21.01947615,low, horse,,No Target,Normal,None,Na,Na,None,None,38,38
23,2008_000398.jpg, person, bottle,,,,20.42379547,low, bottle,,No Target,Critical,"[('space', 0.033804150829382706)]",Na,Na,0.577,tone4,39,39
340,2010_001594.jpg, boat,,,,,19.04897462,low, boat,,No Target,Normal,None,Na,Na,None,None,40,40
270,2009_002711.jpg, car, person,,,,17.85630566,low, car,,No Target,Normal,None,Na,Na,None,None,41,41
137,2008_005214.jpg, pottedplant,,,,,21.2176699,low, pottedplant, bottle,Target Absent,Normal,None,"[('q', 2.621938956894155)]","['space', 1.4540009984048083]",None,None,42,42
319,2010_000090.jpg, chair, dog,,,,13.83671015,low, dog,,No Target,Normal,None,Na,Na,None,None,43,43
351,2010_002283.jpg, horse,,,,,18.05782528,low, horse,,No Target,Normal,None,Na,Na,None,None,44,44
461,2011_002050.jpg, boat,,,,,17.33155808,low, boat,,No Target,Critical,"[('space', 0.19118356864782982)]",Na,Na,0.477,tone3,45,45
157,2008_006092.jpg, car,,,,,16.4886037,low, car,,No Target,Normal,,Na,Na,None,None,46,46
383,2010_004145.jpg, horse,,,,,18.59045643,low, horse,,No Target,Normal,None,Na,Na,None,None,47,47
443,2011_001543.jpg, chair, dog,,,,14.96914197,low, chair,,No Target,Normal,None,Na,Na,None,None,48,48
327,2010_000805.jpg, dog, bottle,,,,18.86070334,low, bottle,,No Target,Normal,"[('space', 0.9451141197641846)]",Na,Na,None,None,49,49
292,2009_004083.jpg, cat,,,,,15.02423943,low, cat,,No Target,Critical,"[('space', 0.00010177936928812414)]",Na,Na,0.363,tone2,50,50
134,2008_004911.jpg, horse,,,,,19.1389758,low, horse,,No Target,Normal,None,Na,Na,None,None,51,51
442,2011_001432.jpg, bird,,,,,19.73559235,low, bird,,No Target,Normal,None,Na,Na,None,None,52,52
418,2011_000379.jpg, sofa, cat,,,,21.05425029,low, sofa, sofa,Target Present,Normal,None,"[('p', 2.697560744745715)]",-999,None,None,53,53
166,2008_006546.jpg, dog,,,,,15.67179749,low, dog,,No Target,Normal,None,Na,Na,None,None,54,54
473,2011_002766.jpg, sofa, dog,,,,19.88562666,low, sofa,,No Target,Normal,None,Na,Na,None,None,55,55
82,2008_002357.jpg, person,,,,,15.28084218,low, person,,No Target,Normal,None,Na,Na,None,None,56,56
384,2010_004175.jpg, cat,,,,,10.23663576,low, cat,,No Target,Normal,None,Na,Na,None,None,57,57
347,2010_001995.jpg, bird,,,,,18.3319521,low, bird,,No Target,Normal,None,Na,Na,None,None,58,58
308,2009_004737.jpg, chair,,,,,16.98544233,low, chair,,No Target,Normal,None,Na,Na,None,None,59,59
67,2008_001920.jpg, tvmonitor, person,,,,34.98802186,high, person,,No Target,Normal,None,Na,Na,None,None,0,60
0,2008_000032.jpg, bus, person,,,,30.61203595,high, person,,No Target,Normal,None,Na,Na,None,None,1,61
186,2008_007534.jpg, car, dog,,,,31.13697328,high, car,,No Target,Normal,None,Na,Na,None,None,2,62
164,2008_006461.jpg, bird,,,,,31.18243026,high, bird,,No Target,Critical,"[('space', 0.14334954485821072)]",Na,Na,0.563,tone1,3,63
293,2009_004125.jpg, person, boat,,,,31.87043919,high, boat,,No Target,Normal,None,Na,Na,None,None,4,64
417,2011_000278.jpg, person, boat, car,,,35.33464598,high, car,,No Target,Normal,None,Na,Na,None,None,5,65
40,2008_000798.jpg, bird,,,,,29.59459789,high, bird,,No Target,Critical,"[('space', 0.9235169362873421)]",Na,Na,0.313,tone3,6,66
177,2008_007143.jpg, boat,,,,,33.49461342,high, boat,,No Target,Normal,None,Na,Na,None,None,7,67
255,2009_002001.jpg, person, aeroplane,,,,34.54414482,high, aeroplane,,No Target,Normal,None,Na,Na,None,None,8,68
87,2008_002482.jpg, person, boat,,,,28.94552801,high, boat,,No Target,Normal,None,Na,Na,None,None,9,69
49,2008_001155.jpg, chair, diningtable,,,,33.69412787,high, chair, chair,Target Present,Normal,None,"[('q', 2.6439740482528578)]",-999,None,None,10,70
310,2009_004841.jpg, cat,,,,,28.68743792,high, cat,,No Target,Normal,None,Na,Na,None,None,11,71
286,2009_003725.jpg, person, horse, car,,,30.12263629,high, car,,No Target,Normal,None,Na,Na,None,None,12,72
262,2009_002414.jpg, bird,,,,,29.74278668,high, bird,,No Target,Critical,"[('space', 0.2515897681223578)]",Na,Na,0.76,tone4,13,73
369,2010_003297.jpg, person, horse,,,,31.96963432,high, horse,,No Target,Normal,None,Na,Na,None,None,14,74
20,2008_000270.jpg, person, dog, sofa,,,29.93561839,high, sofa,,No Target,Normal,None,Na,Na,None,None,15,75
32,2008_000541.jpg, person, sofa,,,,29.63901024,high, sofa,,No Target,Critical,"[('space', 0.6955388419446535)]",Na,Na,0.155,tone2,16,76
170,2008_006864.jpg, pottedplant, sofa, person,,,29.72325552,high, sofa,,No Target,Normal,None,Na,Na,None,None,17,77
285,2009_003705.jpg, person, aeroplane,,,,29.54730611,high, aeroplane,,No Target,Normal,None,Na,Na,None,None,18,78
278,2009_003198.jpg, pottedplant, chair, diningtable,,,29.96856146,high, pottedplant,,No Target,Normal,None,Na,Na,None,None,19,79
405,2010_005595.jpg, horse,,,,,29.69412347,high, horse,,No Target,Normal,None,Na,Na,None,None,20,80
105,2008_003755.jpg, car, dog, person,,,29.76355213,high, dog, bird,Target Absent,Critical,None,"[('p', 3.9899762999484665)]","['space', 1.4300494898634497]",0.928,tone2,21,81
455,2011_001862.jpg, pottedplant, sofa, chair, dog, diningtable,32.89256213,high, chair,,No Target,Normal,None,Na,Na,None,None,22,82
78,2008_002185.jpg, person,,,,,34.64372837,high, person,,No Target,Normal,None,Na,Na,None,None,23,83
254,2009_001976.jpg, chair,,,,,33.76608333,high, chair,,No Target,Normal,None,Na,Na,None,None,24,84
431,2011_001025.jpg, pottedplant, person, bicycle, car,,33.36715275,high, car, car,Target Present,Critical,None,"[('q', 2.3604095921182306)]","['space', 1.4484555906965397]",0.704,tone3,25,85
178,2008_007250.jpg, bird,,,,,31.89212551,high, bird,,No Target,Normal,None,Na,Na,None,None,26,86
409,2010_005705.jpg, boat,,,,,30.07547412,high, boat,,No Target,Normal,None,Na,Na,None,None,27,87
339,2010_001586.jpg, person, train, sofa,,,31.65115644,high, sofa,,No Target,Normal,None,Na,Na,None,None,28,88
132,2008_004892.jpg, person, horse,,,,31.04635209,high, horse,,No Target,Normal,None,Na,Na,None,None,29,89
119,2008_004318.jpg, person, sofa,,,,29.75735845,high, sofa, sofa,Target Present,Normal,None,"[('q', 2.2097176777097047)]",-999,None,None,30,90
171,2008_006870.jpg, person, dog,,,,30.6573416,high, dog,,No Target,Normal,None,Na,Na,None,None,31,91
15,2008_000196.jpg, pottedplant, bicycle, bottle, cat,,35.35378443,high, pottedplant,,No Target,Normal,None,Na,Na,None,None,32,92
93,2008_002966.jpg, person, boat,,,,31.41385755,high, boat,,No Target,Critical,"[('space', 9.208609844790772e-05)]",Na,Na,0.354,tone1,33,93
393,2010_004844.jpg, pottedplant, person, motorbike, car, bus,30.65978031,high, pottedplant,,No Target,Normal,None,Na,Na,None,None,34,94
379,2010_003861.jpg, pottedplant, person, chair, sofa, cat,29.7271296,high, cat,,No Target,Normal,None,Na,Na,None,None,35,95
398,2010_005239.jpg, tvmonitor, cat,,,,33.31955031,high, cat,,No Target,Normal,None,Na,Na,None,None,36,96
260,2009_002306.jpg, boat,,,,,30.0652664,high, boat,,No Target,Critical,"[('space', 0.2591014848658233)]",Na,Na,0.773,tone3,37,97
407,2010_005608.jpg, bird,,,,,29.2726546,high, bird,,No Target,Normal,None,Na,Na,None,None,38,98
13,2008_000192.jpg, bird,,,,,29.17631148,high, bird,,No Target,Normal,None,Na,Na,None,None,39,99
220,2009_000488.jpg, pottedplant, tvmonitor, cat,,,31.6704472,high, pottedplant, horse,Target Absent,Normal,None,"[('q', 2.5269394600909436)]",-999,None,None,40,100
330,2010_000942.jpg, pottedplant, person, chair,,,34.89137182,high, pottedplant,,No Target,Normal,None,Na,Na,None,None,41,101
145,2008_005472.jpg, person, car,,,,28.83974175,high, car,,No Target,Normal,None,Na,Na,None,None,42,102
408,2010_005669.jpg, dog,,,,,33.96067753,high, dog,,No Target,Normal,None,Na,Na,None,None,43,103
382,2010_003943.jpg, cat,,,,,31.19357079,high, cat,,No Target,Normal,None,Na,Na,None,None,44,104
360,2010_002789.jpg, sofa, cat,,,,33.20892925,high, cat, boat,Target Absent,Normal,None,"[('p', 2.569817085073737)]",-999,None,None,45,105
80,2008_002199.jpg, car, bottle, person,,,36.80648002,high, car,,No Target,Normal,None,Na,Na,None,None,46,106
200,2008_008341.jpg, pottedplant, person,,,,30.93117424,high, pottedplant,,No Target,Normal,None,Na,Na,None,None,47,107
295,2009_004179.jpg, person, chair, dog, car,,31.41085347,high, dog,,No Target,Critical,"[('space', 0.6709917672706069)]",Na,Na,0.083,tone4,48,108
472,2011_002641.jpg, person, chair, bottle,,,33.38111538,high, bottle,,No Target,Normal,None,Na,Na,None,None,49,109
68,2008_001929.jpg, person,,,,,38.90283281,high, person,,No Target,Normal,None,Na,Na,None,None,50,110
433,2011_001056.jpg, person,,,,,31.21400965,high, person,,No Target,Normal,None,Na,Na,None,None,51,111
226,2009_000848.jpg, tvmonitor, bottle,,,,30.12607109,high, bottle,,No Target,Normal,None,Na,Na,None,None,52,112
478,2011_003086.jpg, bus, car, person,,,29.14351571,high, car,,No Target,Normal,None,Na,Na,None,None,53,113
415,2011_000009.jpg, tvmonitor, chair, bottle, person,,35.25028289,high, chair,,No Target,Normal,None,Na,Na,None,None,54,114
33,2008_000564.jpg, pottedplant, person,,,,31.19071287,high, person,,No Target,Normal,None,Na,Na,None,None,55,115
44,2008_000916.jpg, pottedplant, person, train,,,29.32349307,high, pottedplant,,No Target,Normal,None,Na,Na,None,None,56,116
298,2009_004283.jpg, pottedplant, sofa,,,,29.04248887,high, pottedplant,,No Target,Normal,None,Na,Na,None,None,57,117
28,2008_000424.jpg, person,,,,,29.85785785,high, person,,No Target,Normal,None,Na,Na,None,None,58,118
185,2008_007527.jpg, tvmonitor, chair,,,,32.38481414,high, chair,,No Target,Normal,None,Na,Na,None,None,59,119
187,2008_007613.jpg, cat,,,,,31.07255302,high, cat,,No Target,Normal,None,Na,Na,None,None,0,120
377,2010_003729.jpg, pottedplant, car, chair, bicycle, person,30.13324411,high, pottedplant, pottedplant,Target Present,Critical,None,"[('q', 2.5887791236600606)]",-999,0.358,tone1,1,121
63,2008_001673.jpg, person, chair, bird,,,29.63012123,high, bird,,No Target,Normal,None,Na,Na,None,None,2,122
395,2010_005106.jpg, person, aeroplane,,,,30.24293721,high, aeroplane,,No Target,Normal,None,Na,Na,None,None,3,123
59,2008_001464.jpg, person, horse,,,,30.7567144,high, horse,,No Target,Normal,None,Na,Na,None,None,4,124
160,2008_006295.jpg, pottedplant, tvmonitor, diningtable, bottle, person,33.94013437,high, bottle, boat,Target Absent,Normal,None,"[('q', 2.1667881651956122)]",-999,None,None,5,125
376,2010_003724.jpg, person, bird,,,,29.65738997,high, bird,,No Target,Normal,None,Na,Na,None,None,6,126
222,2009_000547.jpg, car, horse, person,,,32.99612117,high, horse,,No Target,Normal,None,Na,Na,None,None,7,127
72,2008_002037.jpg, person, dog,,,,30.20203583,high, dog,,No Target,Normal,None,Na,Na,None,None,8,128
179,2008_007281.jpg, sofa, person, bottle, pottedplant, tvmonitor,36.88958526,high, bottle,,No Target,Critical,"[('space', 0.19165397750475677)]",Na,Na,0.555,tone3,9,129
41,2008_000803.jpg, person, bicycle, motorbike,,,31.27613146,high, person,,No Target,Normal,None,Na,Na,None,None,10,130
153,2008_005750.jpg, aeroplane,,,,,29.20186946,high, aeroplane,,No Target,Normal,None,Na,Na,None,None,11,131
346,2010_001992.jpg, bird,,,,,28.99760488,high, bird, bird,Target Present,Normal,None,"[('p', 2.0278667357342783)]",-999,None,None,12,132
53,2008_001312.jpg, person, bottle,,,,31.29356592,high, bottle,,No Target,Normal,None,Na,Na,None,None,13,133
81,2008_002350.jpg, bird,,,,,29.81492031,high, bird,,No Target,Normal,None,Na,Na,None,None,14,134
90,2008_002773.jpg, aeroplane, boat,,,,29.28734944,high, aeroplane,,No Target,Normal,None,Na,Na,None,None,15,135
411,2010_005894.jpg, chair,,,,,29.02795836,high, chair,,No Target,Normal,None,Na,Na,None,None,16,136
436,2011_001139.jpg, chair, bird, diningtable,,,29.36175572,high, bird,,No Target,Normal,None,Na,Na,None,None,17,137
284,2009_003646.jpg, tvmonitor, person, bicycle, sofa,,38.21890595,high, sofa,,No Target,Critical,"[('space', -0.022078711095673498)]",Na,Na,0.854,tone4,18,138
234,2009_001107.jpg, sofa,,,,,30.15956649,high, sofa,,No Target,Normal,None,Na,Na,None,None,19,139
162,2008_006303.jpg, chair,,,,,28.72363665,high, chair,,No Target,Normal,None,Na,Na,None,None,20,140
349,2010_002183.jpg, person, horse,,,,34.55757717,high, horse,,No Target,Critical,"[('space', 0.8344753815108561)]",Na,Na,0.39,tone2,21,141
363,2010_003014.jpg, sofa, person,,,,31.45021986,high, person,,No Target,Normal,None,Na,Na,None,None,22,142
338,2010_001533.jpg, tvmonitor, chair, person,,,33.46727324,high, person,,No Target,Normal,None,Na,Na,None,None,23,143
18,2008_000251.jpg, car, aeroplane,,,,35.87217941,high, aeroplane,,No Target,Normal,None,Na,Na,None,None,24,144
233,2009_000995.jpg, sofa, person,,,,31.46367723,high, sofa,,No Target,Normal,None,Na,Na,None,None,25,145
266,2009_002571.jpg, pottedplant, sofa, chair, diningtable,,28.96846506,high, sofa,,No Target,Critical,"[('space', 0.8014238848481909)]",Na,Na,0.271,tone4,26,146
100,2008_003429.jpg, person, motorbike,,,,31.41933888,high, person,,No Target,Normal,None,Na,Na,None,None,27,147
296,2009_004199.jpg, bottle,,,,,34.55732937,high, bottle,,No Target,Normal,None,Na,Na,None,None,28,148
34,2008_000619.jpg, car, cat,,,,33.46218479,high, cat,,No Target,Normal,None,Na,Na,None,None,29,149
161,2008_006298.jpg, sheep, person, horse,,,32.38547762,high, horse,,No Target,Normal,None,Na,Na,None,None,30,150
306,2009_004674.jpg, sofa, chair, person,,,33.18559025,high, chair,,No Target,Normal,None,Na,Na,None,None,31,151
71,2008_002032.jpg, person, chair, diningtable,,,32.01182729,high, person, pottedplant,Target Absent,Normal,None,"[('q', 3.01375104879844)]","['space', 1.4938081364743994]",None,None,32,152
217,2009_000405.jpg, bus, person, car,,,29.16002617,high, car,,No Target,Normal,None,Na,Na,None,None,33,153
424,2011_000628.jpg, person, horse,,,,31.31059992,high, horse,,No Target,Normal,None,Na,Na,None,None,34,154
218,2009_000449.jpg, sofa, dog, person,,,29.28309157,high, sofa,,No Target,Normal,None,Na,Na,None,None,35,155
65,2008_001784.jpg, pottedplant, person,,,,29.50643156,high, pottedplant,,No Target,Normal,None,Na,Na,None,None,36,156
419,2011_000427.jpg, sofa, diningtable, person,,,40.50710337,high, sofa, aeroplane,Target Absent,Critical,None,"[('q', 2.092708748212317)]","['space', 1.2447437511873432]",0.477,tone3,37,157
211,2009_000120.jpg, boat,,,,,30.80608913,high, boat,,No Target,Normal,None,Na,Na,None,None,38,158
27,2008_000421.jpg, person, bottle, sofa,,,28.87632024,high, bottle,,No Target,Normal,None,Na,Na,None,None,39,159
104,2008_003689.jpg, pottedplant, person, chair,,,30.60605981,high, pottedplant,,No Target,Critical,"[('space', 0.14682600887317676)]",Na,Na,0.526,tone3,40,160
172,2008_006903.jpg, boat,,,,,31.79381279,high, boat,,No Target,Normal,None,Na,Na,None,None,41,161
429,2011_001001.jpg, person, bird, boat,,,31.91340974,high, bird,,No Target,Normal,None,Na,Na,None,None,42,162
439,2011_001221.jpg, pottedplant, person, chair, diningtable, boat,35.38363354,high, chair,,No Target,Normal,None,Na,Na,None,None,43,163
374,2010_003579.jpg, chair, cat,,,,29.79862915,high, cat,,No Target,Normal,None,Na,Na,None,None,44,164
288,2009_003951.jpg, person, train,,,,28.89001495,high, person,,No Target,Normal,None,Na,Na,None,None,45,165
195,2008_007970.jpg, person, aeroplane,,,,30.07304163,high, aeroplane,,No Target,Critical,"[('space', 0.4078581657449831)]",Na,Na,0.93,tone4,46,166
129,2008_004690.jpg, bird,,,,,30.51535276,high, bird,,No Target,Normal,None,Na,Na,None,None,47,167
380,2010_003864.jpg, pottedplant, sofa, chair, diningtable, tvmonitor,31.00753792,high, pottedplant,,No Target,Normal,None,Na,Na,None,None,48,168
283,2009_003351.jpg, pottedplant, person, chair, motorbike, boat,31.5804899,high, boat,,No Target,Critical,"[('space', 0.44184819934889674)]",Na,Na,0.977,tone4,49,169
463,2011_002193.jpg, person, aeroplane,,,,30.18288572,high, aeroplane,,No Target,Normal,None,Na,Na,None,None,50,170
406,2010_005606.jpg, person, sofa, cat,,,29.51418979,high, cat,,No Target,Normal,None,Na,Na,None,None,51,171
355,2010_002462.jpg, pottedplant, person, bottle, diningtable,,35.49954365,high, bottle, bottle,Target Present,Normal,None,"[('q', 3.5423865466436837)]",-999,None,None,52,172
196,2008_008029.jpg, person, sofa,,,,31.11980531,high, sofa,,No Target,Normal,None,Na,Na,None,None,53,173
194,2008_007949.jpg, chair, diningtable,,,,38.0925597,high, chair,,No Target,Normal,None,Na,Na,None,None,54,174
324,2010_000536.jpg, cat,,,,,31.54166437,high, cat,,No Target,Normal,None,Na,Na,None,None,55,175
394,2010_004950.jpg, boat,,,,,29.96161285,high, boat,,No Target,Normal,None,Na,Na,None,None,56,176
56,2008_001333.jpg, sofa, chair, bottle, person,,29.05176679,high, sofa,,No Target,Normal,None,Na,Na,None,None,57,177
390,2010_004542.jpg, person, horse,,,,33.85482115,high, horse,,No Target,Normal,None,Na,Na,None,None,58,178
180,2008_007378.jpg, chair, dog, diningtable,,,29.61144034,high, dog,,No Target,Normal,None,Na,Na,None,None,59,179
236,2009_001299.jpg, person, chair,,,,19.77080876,low, chair,,No Target,Critical,"[('space', 0.13539849474909715)]",Na,Na,0.724,tone3,0,180
444,2011_001568.jpg, cat,,,,,17.32743513,low, cat,,No Target,Normal,None,Na,Na,None,None,1,181
159,2008_006276.jpg, sofa,,,,,12.39022978,low, sofa,,No Target,Normal,None,Na,Na,None,None,2,182
402,2010_005409.jpg, car, bottle, person,,,19.55873743,low, bottle,,No Target,Normal,None,Na,Na,None,None,3,183
243,2009_001470.jpg, sofa, dog,,,,19.18883419,low, dog,,No Target,Critical,"[('space', 0.22390321323473472)]",Na,Na,0.786,tone1,4,184
352,2010_002379.jpg, pottedplant,,,,,19.89572012,low, pottedplant,,No Target,Normal,None,Na,Na,None,None,5,185
144,2008_005467.jpg, dog,,,,,20.01703476,low, dog,,No Target,Normal,None,Na,Na,None,None,6,186
311,2009_004874.jpg, chair,,,,,19.81187434,low, chair,,No Target,Normal,None,Na,Na,None,None,7,187
345,2010_001863.jpg, cat,,,,,16.82752057,low, cat, cat,Target Present,Critical,None,"[('p', 2.194171377646853)]","['space', 1.1062194608457503]",0.555,tone4,8,188
115,2008_004175.jpg, horse,,,,,18.09561576,low, horse,,No Target,Normal,None,Na,Na,None,None,9,189
304,2009_004620.jpg, aeroplane,,,,,17.41279879,low, aeroplane,,No Target,Normal,None,Na,Na,None,None,10,190
290,2009_003974.jpg, car,,,,,16.30622987,low, car,,No Target,Normal,None,Na,Na,None,None,11,191
291,2009_004016.jpg, dog,,,,,19.65229661,low, dog,,No Target,Normal,None,Na,Na,None,None,12,192
111,2008_004138.jpg, aeroplane,,,,,18.76412105,low, aeroplane, boat,Target Absent,Normal,None,"[('q', 1.9947171659587184)]",-999,None,None,13,193
223,2009_000647.jpg, dog,,,,,18.05503275,low, dog,,No Target,Normal,None,Na,Na,None,None,14,194
107,2008_003838.jpg, pottedplant, chair, dog,,,17.39857058,low, pottedplant,,No Target,Normal,None,Na,Na,None,None,15,195
460,2011_002038.jpg, chair,,,,,19.16151497,low, chair,,No Target,Critical,None,Na,Na,0.287,tone1,16,196
457,2011_001886.jpg, boat,,,,,19.6857523,low, boat,,No Target,Normal,None,Na,Na,None,None,17,197
399,2010_005257.jpg, cat,,,,,20.04157457,low, cat,,No Target,Normal,None,Na,Na,None,None,18,198
85,2008_002442.jpg, person, chair, dog, car,,19.9398263,low, car, sofa,Target Absent,Critical,None,"[('q', 2.496710131497821)]","['space', 1.2167498625130975]",0.643,tone4,19,199
58,2008_001439.jpg, chair,,,,,19.87713164,low, chair,,No Target,Normal,None,Na,Na,None,None,20,200
353,2010_002393.jpg, boat,,,,,20.13141109,low, boat,,No Target,Normal,None,Na,Na,None,None,21,201
95,2008_003135.jpg, pottedplant,,,,,20.73071186,low, pottedplant,,No Target,Normal,None,Na,Na,None,None,22,202
94,2008_003045.jpg, cat,,,,,16.41703919,low, cat,,No Target,Normal,None,Na,Na,None,None,23,203
127,2008_004624.jpg, horse,,,,,13.8796341,low, horse, horse,Target Present,Normal,None,"[('p', 1.9172257167083444)]",-999,None,None,24,204
36,2008_000646.jpg, person,,,,,13.39574725,low, person,,No Target,Normal,None,Na,Na,None,None,25,205
140,2008_005345.jpg, pottedplant,,,,,16.52047637,low, pottedplant,,No Target,Normal,None,Na,Na,None,None,26,206
193,2008_007923.jpg, person, bottle,,,,19.05734477,low, person,,No Target,Normal,None,Na,Na,None,None,27,207
224,2009_000716.jpg, cat,,,,,20.53735354,low, cat,,No Target,Normal,None,Na,Na,None,None,28,208
301,2009_004483.jpg, dog,,,,,18.01939275,low, dog, bird,Target Absent,Normal,None,"[('q', 1.9686998497854802)]",-999,None,None,29,209
448,2011_001613.jpg, person, boat,,,,17.51694148,low, boat,,No Target,Normal,None,Na,Na,None,None,30,210
99,2008_003288.jpg, person,,,,,16.331918,low, person,,No Target,Normal,None,Na,Na,None,None,31,211
203,2008_008467.jpg, aeroplane,,,,,11.63773974,low, aeroplane,,No Target,Normal,None,Na,Na,None,None,32,212
321,2010_000151.jpg, bird,,,,,20.12814087,low, bird,,No Target,Normal,None,Na,Na,None,None,33,213
62,2008_001617.jpg, person, chair,,,,20.22413954,low, chair,,No Target,Critical,"[('space', 0.4713496771437349)]",Na,Na,0.838,tone3,34,214
64,2008_001694.jpg, pottedplant, sofa, chair,,,18.5118878,low, sofa,,No Target,Normal,None,Na,Na,None,None,35,215
388,2010_004311.jpg, dog,,,,,16.89110622,low, dog,,No Target,Normal,None,Na,Na,None,None,36,216
314,2009_005036.jpg, car, aeroplane,,,,16.811685,low, aeroplane,,No Target,Normal,None,Na,Na,None,None,37,217
221,2009_000525.jpg, person,,,,,17.83437809,low, person,,No Target,Normal,None,Na,Na,None,None,38,218
329,2010_000846.jpg, dog,,,,,11.4893019,low, dog,,No Target,Normal,None,Na,Na,None,None,39,219
320,2010_000132.jpg, pottedplant,,,,,19.90627663,low, pottedplant, pottedplant,Target Present,Normal,None,"[('p', 2.5498663326070528)]",-999,None,None,40,220
328,2010_000838.jpg, person, horse,,,,20.40572806,low, horse,,No Target,Normal,None,Na,Na,None,None,41,221
139,2008_005309.jpg, cat,,,,,20.22587911,low, cat,,No Target,Normal,None,Na,Na,None,None,42,222
272,2009_002820.jpg, tvmonitor, bird,,,,15.42778804,low, bird,,No Target,Normal,None,Na,Na,None,None,43,223
103,2008_003659.jpg, cat,,,,,15.63366674,low, cat,,No Target,Critical,"[('space', 0.8474147611996159)]",Na,Na,0.678,tone1,44,224
358,2010_002661.jpg, pottedplant,,,,,15.88057161,low, pottedplant,,No Target,Normal,None,Na,Na,None,None,45,225
231,2009_000937.jpg, sofa,,,,,20.50651053,low, sofa,,No Target,Normal,None,Na,Na,None,None,46,226
257,2009_002123.jpg, pottedplant, person,,,,19.66447615,low, pottedplant,,No Target,Critical,"[('space', 0.01817859400762245)]",Na,Na,0.419,tone2,47,227
46,2008_000972.jpg, person, sofa,,,,20.70787778,low, person,,No Target,Normal,None,Na,Na,None,None,48,228
7,2008_000119.jpg, person, horse,,,,19.18754607,low, horse,,No Target,Normal,None,Na,Na,None,None,49,229
45,2008_000952.jpg, car,,,,,19.759256,low, car,,No Target,Normal,None,Na,Na,None,None,50,230
168,2008_006784.jpg, sofa,,,,,17.05590937,low, sofa,,No Target,Critical,"[('space', 8.495869406033307e-05)]",Na,Na,0.287,tone1,51,231
277,2009_003181.jpg, person,,,,,20.71653544,low, person,,No Target,Normal,None,Na,Na,None,None,52,232
445,2011_001591.jpg, person, boat,,,,17.69816713,low, boat,,No Target,Normal,None,Na,Na,None,None,53,233
38,2008_000734.jpg, person, sofa,,,,20.18533933,low, sofa,,No Target,Normal,None,Na,Na,None,None,54,234
430,2011_001005.jpg, pottedplant, sofa,,,,18.96772267,low, pottedplant,,No Target,Normal,None,Na,Na,None,None,55,235
437,2011_001173.jpg, sofa, cat,,,,20.43410382,low, cat,,No Target,Normal,None,Na,Na,None,None,56,236
268,2009_002697.jpg, horse,,,,,19.78900607,low, horse,,No Target,Normal,None,Na,Na,None,None,57,237
316,2009_005308.jpg, bottle,,,,,21.11630175,low, bottle,,No Target,Normal,"[('space', 0.6873460301940213)]",Na,Na,None,None,58,238
341,2010_001731.jpg, chair,,,,,9.955368401,low, chair,,No Target,Normal,None,Na,Na,None,None,59,239
373,2010_003520.jpg, sofa, chair, diningtable,,,35.49231202,high, sofa,,No Target,Normal,None,Na,Na,None,None,0,240
201,2008_008357.jpg, person, bicycle, car,,,32.10863486,high, car,,No Target,Normal,None,Na,Na,None,None,1,241
427,2011_000824.jpg, cat,,,,,31.77985882,high, cat,,No Target,Normal,None,Na,Na,None,None,2,242
240,2009_001345.jpg, person, aeroplane,,,,28.99541661,high, aeroplane, aeroplane,Target Present,Normal,None,"[('p', 1.9322745237732306)]",-999,None,None,3,243
60,2008_001467.jpg, pottedplant, person, chair,,,30.03319736,high, pottedplant,,No Target,Normal,None,Na,Na,None,None,4,244
148,2008_005600.jpg, person, cat,,,,30.22651638,high, cat,,No Target,Normal,None,Na,Na,None,None,5,245
79,2008_002195.jpg, person, aeroplane,,,,30.48036176,high, aeroplane,,No Target,Critical,"[('space', 0.20001414077705704)]",Na,Na,0.555,tone1,6,246
309,2009_004794.jpg, pottedplant, person, bottle, diningtable,,36.66558282,high, bottle,,No Target,Normal,None,Na,Na,None,None,7,247
332,2010_001099.jpg, tvmonitor, dog,,,,31.58802401,high, dog,,No Target,Normal,None,Na,Na,None,None,8,248
8,2008_000140.jpg, boat,,,,,41.70023312,high, boat, boat,Target Present,Normal,None,"[('p', 2.5965850597567623)]",-999,None,None,9,249
147,2008_005563.jpg, person, dog,,,,29.07873274,high, dog,,No Target,Normal,None,Na,Na,None,None,10,250
450,2011_001769.jpg, person, chair, bottle,,,30.2142954,high, chair,,No Target,Normal,None,Na,Na,None,None,11,251
359,2010_002742.jpg, person, bottle, pottedplant, tvmonitor, chair,31.67638571,high, bottle,,No Target,Critical,"[('space', 0.3903906018604175)]",Na,Na,0.563,tone2,12,252
12,2008_000191.jpg, person, bicycle, boat,,,34.31905161,high, boat,,No Target,Normal,None,Na,Na,None,None,13,253
364,2010_003232.jpg, cat,,,,,30.66707338,high, cat,,No Target,Normal,None,Na,Na,None,None,14,254
344,2010_001856.jpg, person, horse,,,,35.66913246,high, horse,,No Target,Normal,None,Na,Na,None,None,15,255
259,2009_002182.jpg, person, horse,,,,29.8661241,high, horse,,No Target,Critical,"[('space', 0.014874328138830606)]",Na,Na,0.584,tone4,16,256
110,2008_004100.jpg, car, aeroplane, person,,,31.81214007,high, aeroplane,,No Target,Normal,None,Na,Na,None,None,17,257
464,2011_002239.jpg, person, dog,,,,31.31965347,high, dog,,No Target,Normal,None,Na,Na,None,None,18,258
128,2008_004646.jpg, person, aeroplane,,,,32.01497355,high, aeroplane, cat,Target Absent,Critical,None,"[('p', 2.4750319806771586)]","['space', 1.1630750712647568]",0.649,tone4,19,259
451,2011_001799.jpg, car, motorbike,,,,30.34900042,high, car,,No Target,Normal,None,Na,Na,None,None,20,260
425,2011_000675.jpg, person, horse,,,,30.73068063,high, horse,,No Target,Normal,None,Na,Na,None,None,21,261
279,2009_003265.jpg, person, chair, bottle, diningtable, tvmonitor,39.0005066,high, chair,,No Target,Normal,None,Na,Na,None,None,22,262
26,2008_000418.jpg, person, chair, diningtable,,,28.87770855,high, chair, sofa,Target Absent,Normal,None,"[('q', 1.865921215925482)]",-999,None,None,23,263
462,2011_002098.jpg, dog, bottle,,,,41.9971447,high, dog,,No Target,Normal,None,Na,Na,None,None,24,264
91,2008_002835.jpg, person, horse,,,,31.84266058,high, horse,,No Target,Normal,None,Na,Na,None,None,25,265
348,2010_002127.jpg, person, bottle, car,,,34.31316104,high, car,,No Target,Critical,"[('space', 0.4406445228596567)]",Na,Na,0.846,tone2,26,266
158,2008_006121.jpg, person, boat,,,,30.38418727,high, boat,,No Target,Normal,None,Na,Na,None,None,27,267
207,2008_008607.jpg, aeroplane,,,,,32.02068991,high, aeroplane,,No Target,Normal,None,Na,Na,None,None,28,268
469,2011_002555.jpg, person, horse,,,,29.26546246,high, horse, dog,Target Absent,Normal,None,"[('q', 2.1808382799863466)]",-999,None,None,29,269
300,2009_004414.jpg, aeroplane,,,,,35.97296008,high, aeroplane,,No Target,Normal,None,Na,Na,None,None,30,270
192,2008_007913.jpg, person, cat,,,,32.26510908,high, cat,,No Target,Normal,None,Na,Na,None,None,31,271
396,2010_005170.jpg, person, chair, diningtable, sofa,,30.91646677,high, person,,No Target,Normal,None,Na,Na,None,None,32,272
371,2010_003419.jpg, bird,,,,,28.6670652,high, bird,,No Target,Normal,None,Na,Na,None,None,33,273
428,2011_000828.jpg, sofa, bottle, person,,,29.47971697,high, sofa,,No Target,Critical,"[('space', 0.893066658070893)]",Na,Na,0.29,tone4,34,274
165,2008_006481.jpg, bird, boat,,,,29.3142336,high, bird,,No Target,Normal,None,Na,Na,None,None,35,275
471,2011_002631.jpg, cat,,,,,29.37680987,high, cat,,No Target,Normal,None,Na,Na,None,None,36,276
61,2008_001580.jpg, boat,,,,,29.28810503,high, boat,,No Target,Normal,"[('space', 0.12746341002639383)]",Na,Na,None,None,37,277
121,2008_004441.jpg, person, bicycle, car,,,30.19059303,high, person,,No Target,Normal,None,Na,Na,None,None,38,278
336,2010_001434.jpg, sofa, chair,,,,31.26054,high, chair,,No Target,Normal,None,Na,Na,None,None,39,279
136,2008_005197.jpg, person, dog,,,,33.64296693,high, dog, dog,Target Present,Normal,None,"[('q', 2.194106945884414)]",-999,None,None,40,280
199,2008_008210.jpg, person, bicycle, car,,,31.5779064,high, car,,No Target,Normal,None,Na,Na,None,None,41,281
227,2009_000906.jpg, car,,,,,29.05478148,high, car,,No Target,Normal,None,Na,Na,None,None,42,282
176,2008_007108.jpg, pottedplant, dog,,,,29.85183435,high, dog,,No Target,Normal,None,Na,Na,None,None,43,283
435,2011_001116.jpg, person, cat,,,,29.77854418,high, cat,,No Target,Critical,"[('space', 0.06539966078707948)]",Na,Na,0.358,tone3,44,284
273,2009_002850.jpg, person, bottle,,,,41.29008548,high, bottle,,No Target,Normal,None,Na,Na,None,None,45,285
432,2011_001031.jpg, sofa, chair,,,,29.49317582,high, sofa,,No Target,Normal,None,Na,Na,None,None,46,286
467,2011_002542.jpg, person, diningtable, bottle,,,40.5533995,high, bottle,,No Target,Critical,"[('space', 0.8936733429582091)]",Na,Na,0.374,tone1,47,287
242,2009_001462.jpg, chair,,,,,32.44930357,high, chair,,No Target,Normal,None,Na,Na,None,None,48,288
188,2008_007629.jpg, aeroplane,,,,,31.1423085,high, aeroplane,,No Target,Normal,None,Na,Na,None,None,49,289
1,2008_000036.jpg, person, bicycle, boat,,,33.11883424,high, boat,,No Target,Normal,None,Na,Na,None,None,50,290
350,2010_002278.jpg, person, cat,,,,29.86799404,high, cat,,No Target,Normal,None,Na,Na,None,None,51,291
122,2008_004445.jpg, pottedplant, chair,,,,30.34541588,high, pottedplant,,No Target,Normal,None,Na,Na,None,None,52,292
74,2008_002079.jpg, person, bottle, diningtable,,,33.02206681,high, bottle,,No Target,Normal,None,Na,Na,None,None,53,293
287,2009_003801.jpg, car,,,,,29.67521889,high, car,,No Target,Normal,None,Na,Na,None,None,54,294
247,2009_001751.jpg, bird,,,,,29.97187988,high, bird,,No Target,Normal,None,Na,Na,None,None,55,295
317,2010_000020.jpg, person, dog,,,,30.51924458,high, dog,,No Target,Critical,"[('space', 0.6287581747819786)]",Na,Na,0.155,tone3,56,296
101,2008_003448.jpg, person, chair,,,,30.01632433,high, chair,,No Target,Normal,None,Na,Na,None,None,57,297
96,2008_003180.jpg, dog,,,,,31.53785713,high, dog,,No Target,Normal,None,Na,Na,None,None,58,298
52,2008_001278.jpg, person, horse,,,,32.48053186,high, horse,,No Target,Normal,None,Na,Na,None,None,59,299
476,2011_002911.jpg, bottle, dog, diningtable,,,21.03464691,low, bottle,,No Target,Normal,None,Na,Na,None,None,0,300
392,2010_004791.jpg, aeroplane,,,,,20.12076124,low, aeroplane,,No Target,Normal,None,Na,Na,None,None,1,301
184,2008_007511.jpg, sofa,,,,,16.41609668,low, sofa,,No Target,Normal,None,Na,Na,None,None,2,302
133,2008_004907.jpg, boat,,,,,16.58037434,low, boat,,No Target,Normal,None,Na,Na,None,None,3,303
69,2008_001934.jpg, horse,,,,,19.66113924,low, horse,,No Target,Normal,None,Na,Na,None,None,4,304
114,2008_004174.jpg, dog,,,,,16.3635983,low, dog,,No Target,Normal,None,Na,Na,None,None,5,305
250,2009_001810.jpg, person, bottle,,,,19.61526987,low, bottle,,No Target,Normal,None,Na,Na,None,None,6,306
413,2010_006076.jpg, dog,,,,,20.39097313,low, dog,,No Target,Normal,None,Na,Na,None,None,7,307
438,2011_001198.jpg, sofa, dog,,,,16.6984986,low, sofa,,No Target,Normal,None,Na,Na,None,None,8,308
155,2008_006034.jpg, aeroplane,,,,,20.01272221,low, aeroplane,,No Target,Normal,None,Na,Na,None,None,9,309
381,2010_003911.jpg, boat,,,,,20.08430254,low, boat,,No Target,Critical,"[('space', 0.31959977043879917)]",Na,Na,0.81,tone2,10,310
21,2008_000287.jpg, pottedplant,,,,,19.54965645,low, pottedplant,,No Target,Normal,None,Na,Na,None,None,11,311
458,2011_001959.jpg, bird,,,,,9.576867709,low, bird,,No Target,Normal,None,Na,Na,None,None,12,312
449,2011_001753.jpg, aeroplane,,,,,11.34641314,low, aeroplane,,No Target,Critical,"[('space', 8.552888903068379e-05)]",Na,Na,0.474,tone4,13,313
303,2009_004594.jpg, car,,,,,19.03017815,low, car,,No Target,Normal,None,Na,Na,None,None,14,314
401,2010_005391.jpg, dog,,,,,18.6088037,low, dog,,No Target,Normal,None,Na,Na,None,None,15,315
17,2008_000236.jpg, person,,,,,19.27672634,low, person, bird,Target Absent,Normal,None,"[('p', 3.038145311860717)]",-999,None,None,16,316
454,2011_001834.jpg, chair,,,,,13.72743874,low, chair,,No Target,Normal,None,Na,Na,None,None,17,317
109,2008_004036.jpg, person, motorbike,,,,19.44615669,low, person,,No Target,Normal,None,Na,Na,None,None,18,318
10,2008_000151.jpg, aeroplane,,,,,8.171244741,low, aeroplane,,No Target,Normal,None,Na,Na,None,None,19,319
4,2008_000066.jpg, dog,,,,,14.84037085,low, dog, dog,Target Present,Normal,None,"[('p', 2.038431833621871)]",-999,None,None,20,320
468,2011_002548.jpg, bird,,,,,17.81068988,low, bird,,No Target,Normal,None,Na,Na,None,None,21,321
232,2009_000939.jpg, tvmonitor, chair, sofa,,,21.02083881,low, sofa,,No Target,Normal,None,Na,Na,None,None,22,322
57,2008_001395.jpg, person,,,,,19.97982463,low, person, person,Target Present,Normal,None,"[('p', 1.784381114426651)]",-999,None,None,23,323
89,2008_002704.jpg, car,,,,,19.43993938,low, car,,No Target,Normal,None,Na,Na,None,None,24,324
48,2008_001040.jpg, boat,,,,,20.2100437,low, boat,,No Target,Normal,None,Na,Na,None,None,25,325
325,2010_000628.jpg, car,,,,,19.89235212,low, car,,No Target,Normal,None,Na,Na,None,None,26,326
156,2008_006072.jpg, bottle,,,,,18.25990094,low, bottle,,No Target,Normal,None,Na,Na,None,None,27,327
289,2009_003962.jpg, bird,,,,,16.63718849,low, bird,,No Target,Critical,"[('space', 0.9924552120864973)]",Na,Na,0.364,tone2,28,328
118,2008_004270.jpg, person, sofa,,,,19.24403588,low, person,,No Target,Normal,None,Na,Na,None,None,29,329
354,2010_002436.jpg, bird,,,,,20.65943839,low, bird,,No Target,Normal,None,Na,Na,None,None,30,330
426,2011_000734.jpg, bird,,,,,18.23108888,low, bird,,No Target,Critical,"[('space', 0.08930583902838407)]",Na,Na,0.583,tone3,31,331
76,2008_002145.jpg, person,,,,,18.87955753,low, person,,No Target,Normal,None,Na,Na,None,None,32,332
141,2008_005443.jpg, aeroplane,,,,,17.39728912,low, aeroplane,,No Target,Normal,None,Na,Na,None,None,33,333
205,2008_008533.jpg, horse,,,,,19.2079564,low, horse,,No Target,Critical,"[('space', 0.31535896330024116)]",Na,Na,0.846,tone3,34,334
22,2008_000339.jpg, bird,,,,,14.38243182,low, bird,,No Target,Normal,None,Na,Na,None,None,35,335
35,2008_000645.jpg, person,,,,,10.96294835,low, person,,No Target,Normal,None,Na,Na,None,None,36,336
312,2009_004888.jpg, person, boat,,,,16.65124246,low, boat, boat,Target Present,Normal,None,"[('p', 2.584529763626051)]",-999,None,None,37,337
125,2008_004607.jpg, bottle,,,,,20.4657412,low, bottle,,No Target,Normal,None,Na,Na,None,None,38,338
92,2008_002866.jpg, person, horse,,,,18.60877848,low, horse,,No Target,Normal,None,Na,Na,None,None,39,339
225,2009_000742.jpg, bottle,,,,,16.39468003,low, bottle,,No Target,Normal,None,Na,Na,None,None,40,340
54,2008_001320.jpg, person, chair, diningtable,,,20.00529885,low, chair, pottedplant,Target Absent,Normal,None,"[('q', 2.586301922092389)]",-999,None,None,41,341
357,2010_002498.jpg, person, boat,,,,17.99774847,low, boat,,No Target,Normal,None,Na,Na,None,None,42,342
368,2010_003287.jpg, tvmonitor, chair, person,,,20.15519305,low, chair,,No Target,Normal,None,Na,Na,None,None,43,343
189,2008_007704.jpg, chair, diningtable, bottle,,,20.03811988,low, bottle,,No Target,Normal,None,Na,Na,None,None,44,344
305,2009_004639.jpg, cat,,,,,20.83776855,low, cat,,No Target,Normal,None,Na,Na,None,None,45,345
248,2009_001774.jpg, sofa, dog,,,,16.14256262,low, sofa,,No Target,Critical,"[('space', 0.10467766016517999)]",Na,Na,0.555,tone2,46,346
403,2010_005437.jpg, car,,,,,20.48716673,low, car,,No Target,Normal,None,Na,Na,None,None,47,347
313,2009_004984.jpg, bicycle, bottle,,,,18.89379801,low, bottle,,No Target,Normal,None,Na,Na,None,None,48,348
16,2008_000197.jpg, aeroplane,,,,,16.57609723,low, aeroplane,,No Target,Critical,"[('space', 0.9168727675205446)]",Na,Na,0.362,tone3,49,349
331,2010_001036.jpg, person, boat,,,,19.19481595,low, boat,,No Target,Normal,None,Na,Na,None,None,50,350
391,2010_004662.jpg, boat,,,,,21.19862042,low, boat,,No Target,Normal,None,Na,Na,None,None,51,351
228,2009_000919.jpg, boat,,,,,19.2535196,low, boat, sofa,Target Absent,Normal,None,"[('q', 1.943618789788161)]",-999,None,None,52,352
274,2009_002998.jpg, sofa,,,,,20.95630729,low, sofa,,No Target,Normal,None,Na,Na,None,None,53,353
414,2010_006078.jpg, cat,,,,,13.15004464,low, cat,,No Target,Normal,None,Na,Na,None,None,54,354
334,2010_001370.jpg, dog,,,,,17.80742804,low, dog,,No Target,Critical,"[('space', 0.2913036797035602)]",Na,Na,0.627,tone2,55,355
275,2009_003084.jpg, boat,,,,,20.07471587,low, boat,,No Target,Normal,None,Na,Na,None,None,56,356
97,2008_003203.jpg, pottedplant, person,,,,20.51511763,low, pottedplant,,No Target,Normal,None,Na,Na,None,None,57,357
29,2008_000491.jpg, pottedplant,,,,,15.06948341,low, pottedplant,,No Target,Normal,None,Na,Na,None,None,58,358
169,2008_006837.jpg, chair, dog, diningtable,,,18.2062639,low, chair,,No Target,Critical,None,Na,Na,0.584,tone4,59,359
389,2010_004425.jpg, sofa, cat,,,,18.28847734,low, sofa, bird,Target Absent,Normal,None,"[('q', 1.930182202180731)]",-999,None,None,0,360
113,2008_004171.jpg, pottedplant,,,,,20.58416257,low, pottedplant,,No Target,Normal,None,Na,Na,None,None,1,361
238,2009_001314.jpg, bird,,,,,8.549086134,low, bird,,No Target,Normal,None,Na,Na,None,None,2,362
31,2008_000533.jpg, bird,,,,,13.80945657,low, bird,,No Target,Critical,"[('space', 0.2782020802333136)]",Na,Na,0.928,tone1,3,363
86,2008_002471.jpg, bird,,,,,20.79976233,low, bird,,No Target,Normal,None,Na,Na,None,None,4,364
362,2010_002990.jpg, person, cat,,,,19.84957835,low, cat,,No Target,Normal,None,Na,Na,None,None,5,365
276,2009_003127.jpg, horse,,,,,19.10307284,low, horse,,No Target,Normal,None,Na,Na,None,None,6,366
213,2009_000169.jpg, person, horse, car,,,20.93459986,low, car,,No Target,Normal,None,Na,Na,None,None,7,367
258,2009_002137.jpg, bottle,,,,,18.60351893,low, bottle,,No Target,Critical,"[('space', 0.10081089934828924)]",Na,Na,0.71,tone3,8,368
24,2008_000400.jpg, bird,,,,,19.61954485,low, bird,,No Target,Normal,None,Na,Na,None,None,9,369
343,2010_001836.jpg, aeroplane,,,,,18.21242681,low, aeroplane,,No Target,Normal,None,Na,Na,None,None,10,370
77,2008_002182.jpg, cat,,,,,16.26490692,low, cat,,No Target,Normal,None,Na,Na,None,None,11,371
112,2008_004166.jpg, horse,,,,,20.56778279,low, horse,,No Target,Critical,"[('space', 0.17329463246278465)]",Na,Na,0.728,tone2,12,372
397,2010_005217.jpg, bird,,,,,20.82173163,low, bird,,No Target,Normal,None,Na,Na,None,None,13,373
333,2010_001192.jpg, sofa, person,,,,20.92452836,low, sofa,,No Target,Normal,None,Na,Na,None,None,14,374
246,2009_001746.jpg, sofa,,,,,16.30002293,low, sofa,,No Target,Normal,None,Na,Na,None,None,15,375
322,2010_000295.jpg, aeroplane,,,,,18.64762782,low, aeroplane,,No Target,Normal,None,Na,Na,None,None,16,376
307,2009_004713.jpg, bird,,,,,20.01239363,low, bird, bird,Target Present,Normal,None,"[('p', 2.021674444571545)]",-999,None,None,17,377
14,2008_000193.jpg, car, person,,,,16.25909358,low, car,,No Target,Normal,None,Na,Na,None,None,18,378
149,2008_005673.jpg, cat,,,,,18.6869051,low, cat,,No Target,Normal,None,Na,Na,None,None,19,379
142,2008_005444.jpg, person, sofa,,,,14.90489029,low, sofa,,No Target,Normal,None,Na,Na,None,None,20,380
323,2010_000447.jpg, chair,,,,,18.00822423,low, chair, chair,Target Present,Normal,None,"[('p', 2.2231009523020475)]",-999,None,None,21,381
245,2009_001723.jpg, boat,,,,,19.26433768,low, boat,,No Target,Normal,None,Na,Na,None,None,22,382
11,2008_000163.jpg, car,,,,,18.70849772,low, car,,No Target,Normal,None,Na,Na,None,None,23,383
235,2009_001279.jpg, cat,,,,,17.88110457,low, cat, horse,Target Absent,Normal,None,"[('q', 1.9459828081235173)]",-999,None,None,24,384
365,2010_003255.jpg, bird,,,,,13.95929412,low, bird,,No Target,Normal,None,Na,Na,None,None,25,385
174,2008_007012.jpg, dog,,,,,9.061016516,low, dog,,No Target,Normal,None,Na,Na,None,None,26,386
249,2009_001782.jpg, car,,,,,18.87415623,low, car,,No Target,Normal,None,Na,Na,None,None,27,387
151,2008_005735.jpg, cat,,,,,13.68599365,low, cat,,No Target,Normal,None,Na,Na,None,None,28,388
361,2010_002956.jpg, bottle,,,,,16.59887486,low, bottle,,No Target,Normal,None,Na,Na,None,None,29,389
237,2009_001312.jpg, aeroplane,,,,,19.88575045,low, aeroplane,,No Target,Normal,None,Na,Na,None,None,30,390
422,2011_000514.jpg, pottedplant,,,,,18.03153745,low, pottedplant,,No Target,Normal,None,Na,Na,None,None,31,391
337,2010_001441.jpg, bird,,,,,12.28655099,low, bird,,No Target,Normal,None,Na,Na,None,None,32,392
299,2009_004334.jpg, bird,,,,,18.83558265,low, bird, horse,Target Absent,Normal,None,"[('q', 1.9563295222615125)]",-999,None,None,33,393
123,2008_004490.jpg, chair, cat,,,,16.57851398,low, chair,,No Target,Normal,None,Na,Na,None,None,34,394
416,2011_000129.jpg, aeroplane,,,,,15.90618893,low, aeroplane,,No Target,Normal,None,Na,Na,None,None,35,395
400,2010_005376.jpg, horse,,,,,20.34348153,low, horse,,No Target,Critical,None,Na,Na,0.578,tone4,36,396
387,2010_004307.jpg, person, bicycle,,,,21.2386983,low, person,,No Target,Normal,None,Na,Na,None,None,37,397
152,2008_005748.jpg, dog,,,,,12.20210994,low, dog,,No Target,Normal,"[('space', 0.00619998876209138)]",Na,Na,None,None,38,398
297,2009_004263.jpg, pottedplant, chair, diningtable,,,21.05350372,low, pottedplant,,No Target,Critical,"[('space', 0.6359220740632736)]",Na,Na,0.098,tone1,39,399
173,2008_006921.jpg, car,,,,,18.41450385,low, car,,No Target,Normal,None,Na,Na,None,None,40,400
385,2010_004223.jpg, person, chair,,,,16.60680658,low, chair,,No Target,Normal,None,Na,Na,None,None,41,401
154,2008_005831.jpg, dog,,,,,15.13791528,low, dog,,No Target,Normal,None,Na,Na,None,None,42,402
318,2010_000073.jpg, car,,,,,18.42947513,low, car,,No Target,Critical,"[('space', 0.10653534751327243)]",Na,Na,0.555,tone1,43,403
143,2008_005465.jpg, bird,,,,,16.67271324,low, bird,,No Target,Normal,None,Na,Na,None,None,44,404
116,2008_004208.jpg, person, chair,,,,21.15894772,low, person,,No Target,Normal,None,Na,Na,None,None,45,405
269,2009_002704.jpg, cat,,,,,14.70154771,low, cat,,No Target,Normal,None,Na,Na,None,None,46,406
216,2009_000304.jpg, chair, cat,,,,18.18987643,low, chair,,No Target,Normal,None,Na,Na,None,None,47,407
280,2009_003309.jpg, aeroplane,,,,,19.09599574,low, aeroplane,,No Target,Normal,None,Na,Na,None,None,48,408
108,2008_003846.jpg, car,,,,,18.10032217,low, car,,No Target,Critical,"[('space', 9.066062193596736e-05)]",Na,Na,0.359,tone4,49,409
214,2009_000189.jpg, sofa, dog,,,,20.93405968,low, sofa,,No Target,Normal,None,Na,Na,None,None,50,410
2,2008_000037.jpg, aeroplane,,,,,12.091823,low, aeroplane,,No Target,Normal,None,Na,Na,None,None,51,411
378,2010_003746.jpg, car, dog, person,,,21.02015921,low, car, car,Target Present,Critical,"[('space', 0.7638718583475566)]","[('q', 1.9638435197775834)]",-999,0.287,tone3,52,412
261,2009_002374.jpg, chair,,,,,20.13855957,low, chair,,No Target,Normal,None,Na,Na,None,None,53,413
477,2011_003023.jpg, sheep, person,,,,14.02332689,low, person,,No Target,Normal,None,Na,Na,None,None,54,414
106,2008_003767.jpg, pottedplant,,,,,21.25588755,low, pottedplant,,No Target,Normal,None,Na,Na,None,None,55,415
447,2011_001611.jpg, pottedplant,,,,,20.3935266,low, pottedplant,,No Target,Critical,"[('space', 0.42112597634695703)]",Na,Na,0.629,tone1,56,416
6,2008_000112.jpg, bottle, cat,,,,21.25982976,low, bottle,,No Target,Normal,None,Na,Na,None,None,57,417
88,2008_002504.jpg, boat,,,,,20.47066395,low, boat,,No Target,Normal,None,Na,Na,None,None,58,418
366,2010_003259.jpg, aeroplane,,,,,18.73147009,low, aeroplane,,No Target,Normal,None,Na,Na,None,None,59,419
75,2008_002084.jpg, pottedplant, person, dog,,,30.00737433,high, pottedplant,,No Target,Normal,None,Na,Na,None,None,0,420
239,2009_001321.jpg, car, aeroplane,,,,37.93755166,high, aeroplane,,No Target,Critical,"[('space', 0.24136250932497205)]",Na,Na,0.71,tone1,1,421
182,2008_007423.jpg, bird,,,,,33.64739801,high, bird,,No Target,Normal,None,Na,Na,None,None,2,422
150,2008_005702.jpg, horse,,,,,29.28123751,high, horse,,No Target,Normal,None,Na,Na,None,None,3,423
446,2011_001605.jpg, pottedplant, person, motorbike,,,34.41600543,high, pottedplant,,No Target,Normal,None,Na,Na,None,None,4,424
282,2009_003338.jpg, person, horse,,,,30.13089803,high, horse, horse,Target Present,Normal,None,"[('p', 2.0997309546437464)]","['space', 1.555778659232601]",None,None,5,425
190,2008_007745.jpg, person, dog,,,,32.95939022,high, dog,,No Target,Normal,None,Na,Na,None,None,6,426
219,2009_000466.jpg, cat,,,,,30.95401072,high, cat,,No Target,Normal,None,Na,Na,None,None,7,427
315,2009_005239.jpg, person, boat,,,,33.51757226,high, boat,,No Target,Critical,"[('space', 0.5371205332921818)]",Na,Na,0.627,tone4,8,428
37,2008_000697.jpg, bird,,,,,32.06509586,high, bird,,No Target,Normal,None,Na,Na,None,None,9,429
206,2008_008591.jpg, person, bicycle, bottle,,,30.12805384,high, bottle,,No Target,Normal,None,Na,Na,None,None,10,430
25,2008_000414.jpg, boat,,,,,35.94715,high, boat, car,Target Absent,Normal,None,"[('q', 1.9893245698549435)]",-999,None,None,11,431
420,2011_000434.jpg, sofa, person, tvmonitor,,,31.14925642,high, person,,No Target,Normal,None,Na,Na,None,None,12,432
215,2009_000247.jpg, person, diningtable, bottle,,,30.91062411,high, bottle,,No Target,Normal,None,Na,Na,None,None,13,433
412,2010_006015.jpg, chair, bottle,,,,33.56815114,high, bottle,,No Target,Critical,"[('space', 0.5856678679701872)]",Na,Na,0.026,tone3,14,434
440,2011_001283.jpg, sofa, person,,,,32.35902155,high, sofa,,No Target,Normal,None,Na,Na,None,None,15,435
441,2011_001382.jpg, pottedplant, person, diningtable, bottle,,28.93951331,high, pottedplant,,No Target,Normal,None,Na,Na,None,None,16,436
452,2011_001800.jpg, person, aeroplane,,,,30.95304329,high, aeroplane,,No Target,Normal,None,Na,Na,None,None,17,437
73,2008_002039.jpg, person,,,,,29.72640207,high, person,,No Target,Normal,None,Na,Na,None,None,18,438
281,2009_003323.jpg, person, horse,,,,28.63959648,high, horse,,No Target,Normal,None,Na,Na,None,None,19,439
202,2008_008368.jpg, person, bicycle, car,,,31.8102479,high, car, boat,Target Absent,Normal,None,"[('q', 1.9343554415027029)]",-999,None,None,20,440
50,2008_001182.jpg, person, dog,,,,32.23604822,high, dog,,No Target,Normal,None,Na,Na,None,None,21,441
181,2008_007388.jpg, pottedplant, chair, diningtable,,,28.76635784,high, chair,,No Target,Normal,None,Na,Na,None,None,22,442
465,2011_002358.jpg, person, chair, diningtable, bottle,,32.26151027,high, bottle,,No Target,Normal,None,Na,Na,None,None,23,443
175,2008_007057.jpg, dog,,,,,40.77312128,high, dog,,No Target,Normal,None,Na,Na,None,None,24,444
51,2008_001210.jpg, cat,,,,,29.24697617,high, cat, cat,Target Present,Critical,None,"[('p', 2.128454404693912)]","['space', 1.3605110863936716]",0.851,tone2,25,445
167,2008_006767.jpg, boat,,,,,32.60330947,high, boat,,No Target,Normal,None,Na,Na,None,None,26,446
456,2011_001880.jpg, aeroplane,,,,,32.20276402,high, aeroplane,,No Target,Normal,None,Na,Na,None,None,27,447
294,2009_004154.jpg, person, chair, diningtable, bottle,,29.62291428,high, person,,No Target,Normal,None,Na,Na,None,None,28,448
66,2008_001862.jpg, pottedplant, person, chair, dog, bottle,31.05804957,high, dog,,No Target,Critical,"[('space', 0.05837945002713241)]",Na,Na,0.332,tone2,29,449
98,2008_003283.jpg, person, horse,,,,30.08804593,high, horse,,No Target,Normal,None,Na,Na,None,None,30,450
43,2008_000880.jpg, car, horse, person,,,34.97663775,high, car,,No Target,Normal,None,Na,Na,None,None,31,451
135,2008_005178.jpg, person, dog,,,,29.07343452,high, dog,,No Target,Normal,None,Na,Na,None,None,32,452
183,2008_007488.jpg, bus, motorbike, car, person,,31.08966391,high, car,,No Target,Normal,None,Na,Na,None,None,33,453
42,2008_000829.jpg, person, dog,,,,30.55610287,high, dog,,No Target,Critical,"[('space', 0.3290173558052629)]",Na,Na,0.854,tone3,34,454
55,2008_001329.jpg, car, person,,,,34.57644103,high, car,,No Target,Normal,None,Na,Na,None,None,35,455
423,2011_000548.jpg, bird, cow,,,,30.961221,high, bird,,No Target,Normal,None,Na,Na,None,None,36,456
19,2008_000262.jpg, boat,,,,,38.409555,high, boat,,No Target,Normal,None,Na,Na,None,None,37,457
410,2010_005718.jpg, car, aeroplane,,,,32.22452077,high, aeroplane,,No Target,Normal,None,Na,Na,None,None,38,458
356,2010_002472.jpg, cat,,,,,32.66066395,high, cat,,No Target,Critical,"[('space', 0.8817241026408738)]",Na,Na,0.362,tone2,39,459
30,2008_000495.jpg, tvmonitor, chair, bottle,,,32.17976917,high, bottle,,No Target,Normal,None,Na,Na,None,None,40,460
5,2008_000093.jpg, tvmonitor, chair, sofa,,,29.822033,high, sofa,,No Target,Normal,None,Na,Na,None,None,41,461
230,2009_000934.jpg, person, horse,,,,33.98425573,high, horse,,No Target,Critical,"[('space', 0.08989826909237308)]",Na,Na,0.526,tone3,42,462
146,2008_005519.jpg, pottedplant, person, chair, diningtable,,31.52068761,high, chair,,No Target,Normal,None,Na,Na,None,None,43,463
212,2009_000157.jpg, tvmonitor, chair, person,,,30.89333834,high, chair,,No Target,Normal,None,Na,Na,None,None,44,464
197,2008_008080.jpg, pottedplant, bus, bicycle,,,33.24041884,high, pottedplant,,No Target,Normal,None,Na,Na,None,None,45,465
404,2010_005572.jpg, person, motorbike,,,,31.07685831,high, person, person,Target Present,Normal,None,"[('p', 1.9802023442316568)]",-999,None,None,46,466
102,2008_003575.jpg, person, aeroplane,,,,31.07062434,high, aeroplane,,No Target,Normal,None,Na,Na,None,None,47,467
244,2009_001695.jpg, bicycle, bottle,,,,35.23814958,high, bottle,,No Target,Normal,None,Na,Na,None,None,48,468
475,2011_002879.jpg, sofa, tvmonitor,,,,29.90273721,high, sofa,,No Target,Normal,None,Na,Na,None,None,49,469
204,2008_008490.jpg, bird,,,,,29.18141014,high, bird, dog,Target Absent,Normal,None,"[('q', 2.1182764675540966)]",-999,None,None,50,470
434,2011_001097.jpg, boat,,,,,33.0359363,high, boat,,No Target,Normal,None,Na,Na,None,None,51,471
252,2009_001888.jpg, pottedplant, sofa,,,,28.81434209,high, pottedplant,,No Target,Normal,None,Na,Na,None,None,52,472
474,2011_002814.jpg, sofa, bottle, pottedplant, tvmonitor, chair,33.93777562,high, bottle,,No Target,Critical,"[('space', 0.9969087010540534)]",Na,Na,0.113,tone2,53,473
209,2009_000021.jpg, car, person,,,,29.00835902,high, car,,No Target,Normal,None,Na,Na,None,None,54,474
229,2009_000926.jpg, pottedplant, sofa,,,,35.07912895,high, sofa,,No Target,Normal,None,Na,Na,None,None,55,475
70,2008_002026.jpg, pottedplant, sofa, chair,,,35.71139853,high, pottedplant,,No Target,Normal,None,Na,Na,None,None,56,476
47,2008_000987.jpg, person,,,,,31.64764727,high, person,,No Target,Normal,None,Na,Na,None,None,57,477
459,2011_002005.jpg, tvmonitor, chair, person,,,30.09308124,high, chair,,No Target,Normal,None,Na,Na,None,None,58,478
126,2008_004614.jpg, car, bus, person,,,31.30513577,high, car,,No Target,Normal,None,Na,Na,None,None,59,479
